success,trial_type,trial_index,time_elapsed,internal_node_id,line_1,line_2,line_3,rt,phase,first_stage,last_stage,show_money_val,p_o1,safe_val,o1_val,o2_val,o1_image,o2_image,safe_image,choice_image,key_press_num,choice,accept,outcome_reached,points_received,choice_number,correct_image,correct_name,use_image,use_outcome,correct,key,p_o1_c1,p_o1_c2,chosen_side,chosen_machine,outcome_im,points_recieved,correct_response,C1,C2
TRUE,fullscreen,0,1820,0.0-0.0,,,,,,,,,,,,,,,,,,,,,,,,,,,,,,,,,,,,,
,evan-display-text,1,4046,0.0-1.0,You'll now play the MARBLES slot machine.,"For each game, press 1 to play the machine.",Please pay attention! There will be checks.,2213.44,TRAIN INFO,,,,,,,,,,,,,,,,,,,,,,,,,,,,,,,,
,evan-run-trial,2,8398,0.0-2.0,,,,2092.085,TRAIN OBSERVE,2,4,FALSE,0,10,10,10,Stimuli/MEG_Stimuli/intermediate/In01.png,Stimuli/MEG_Stimuli/intermediate/In02.png,Stimuli/MEG_Stimuli/intermediate/In03.png,Stimuli/MEG_Stimuli/intermediate/In05.png,49,1,,2,10,2,,,,,,,,,,,,,,,
,evan-run-trial,3,11083,0.0-3.0,,,,450.77,TRAIN OBSERVE,2,4,FALSE,0,10,10,10,Stimuli/MEG_Stimuli/intermediate/In01.png,Stimuli/MEG_Stimuli/intermediate/In02.png,Stimuli/MEG_Stimuli/intermediate/In03.png,Stimuli/MEG_Stimuli/intermediate/In05.png,49,1,,2,10,2,,,,,,,,,,,,,,,
,evan-run-trial,4,13702,0.0-4.0,,,,389.6650001,TRAIN OBSERVE,2,4,FALSE,1,10,10,10,Stimuli/MEG_Stimuli/intermediate/In01.png,Stimuli/MEG_Stimuli/intermediate/In02.png,Stimuli/MEG_Stimuli/intermediate/In03.png,Stimuli/MEG_Stimuli/intermediate/In05.png,49,1,,1,10,2,,,,,,,,,,,,,,,
,evan-run-trial,5,16221,0.0-5.0,,,,267.3499999,TRAIN OBSERVE,2,4,FALSE,1,10,10,10,Stimuli/MEG_Stimuli/intermediate/In01.png,Stimuli/MEG_Stimuli/intermediate/In02.png,Stimuli/MEG_Stimuli/intermediate/In03.png,Stimuli/MEG_Stimuli/intermediate/In05.png,49,1,,1,10,2,,,,,,,,,,,,,,,
,evan-info-quiz,6,18785,0.0-6.0,,,,2054.605,,,,,,,,,,,,,,,,,,,Stimuli/MEG_Stimuli/intermediate/In01.png,WALLET,TRUE,TRUE,1,49,,,,,,,,,
,evan-run-trial,7,21558,0.0-7.0,,,,526.695,TRAIN OBSERVE,2,4,FALSE,0,10,10,10,Stimuli/MEG_Stimuli/intermediate/In01.png,Stimuli/MEG_Stimuli/intermediate/In02.png,Stimuli/MEG_Stimuli/intermediate/In03.png,Stimuli/MEG_Stimuli/intermediate/In05.png,49,1,,2,10,2,,,,,,,,,,,,,,,
,evan-run-trial,8,24143,0.0-8.0,,,,329.8499999,TRAIN OBSERVE,2,4,FALSE,0,10,10,10,Stimuli/MEG_Stimuli/intermediate/In01.png,Stimuli/MEG_Stimuli/intermediate/In02.png,Stimuli/MEG_Stimuli/intermediate/In03.png,Stimuli/MEG_Stimuli/intermediate/In05.png,49,1,,2,10,2,,,,,,,,,,,,,,,
,evan-info-quiz,9,26240,0.0-9.0,,,,1591.425,,,,,,,,,,,,,,,,,,,Stimuli/MEG_Stimuli/intermediate/In05.png,MARBLES,FALSE,FALSE,1,52,,,,,,,,,
,evan-run-trial,10,28948,0.0-10.0,,,,463.3899997,TRAIN OBSERVE,2,4,FALSE,1,10,10,10,Stimuli/MEG_Stimuli/intermediate/In01.png,Stimuli/MEG_Stimuli/intermediate/In02.png,Stimuli/MEG_Stimuli/intermediate/In03.png,Stimuli/MEG_Stimuli/intermediate/In05.png,49,1,,1,10,2,,,,,,,,,,,,,,,
,evan-run-trial,11,31583,0.0-11.0,,,,380.5300002,TRAIN OBSERVE,2,4,FALSE,0,10,10,10,Stimuli/MEG_Stimuli/intermediate/In01.png,Stimuli/MEG_Stimuli/intermediate/In02.png,Stimuli/MEG_Stimuli/intermediate/In03.png,Stimuli/MEG_Stimuli/intermediate/In05.png,49,1,,2,10,2,,,,,,,,,,,,,,,
,evan-run-trial,12,34219,0.0-12.0,,,,384.0299998,TRAIN OBSERVE,2,4,FALSE,0,10,10,10,Stimuli/MEG_Stimuli/intermediate/In01.png,Stimuli/MEG_Stimuli/intermediate/In02.png,Stimuli/MEG_Stimuli/intermediate/In03.png,Stimuli/MEG_Stimuli/intermediate/In05.png,49,1,,2,10,2,,,,,,,,,,,,,,,
,evan-run-trial,13,36804,0.0-13.0,,,,341.9300001,TRAIN OBSERVE,2,4,FALSE,1,10,10,10,Stimuli/MEG_Stimuli/intermediate/In01.png,Stimuli/MEG_Stimuli/intermediate/In02.png,Stimuli/MEG_Stimuli/intermediate/In03.png,Stimuli/MEG_Stimuli/intermediate/In05.png,49,1,,1,10,2,,,,,,,,,,,,,,,
,evan-display-text,14,38490,0.0-14.0,You'll now play the BARRELL slot machine.,"For each game, press 1 to play the machine.",Please pay attention! There will be checks.,1684.945,TRAIN INFO,,,,,,,,,,,,,,,,,,,,,,,,,,,,,,,,
,evan-run-trial,15,41241,0.0-15.0,,,,518.9350001,TRAIN OBSERVE,2,4,FALSE,0,10,10,10,Stimuli/MEG_Stimuli/intermediate/In01.png,Stimuli/MEG_Stimuli/intermediate/In02.png,Stimuli/MEG_Stimuli/intermediate/In03.png,Stimuli/MEG_Stimuli/intermediate/In06.png,49,1,,2,10,3,,,,,,,,,,,,,,,
,evan-run-trial,16,43694,0.0-16.0,,,,217.4149998,TRAIN OBSERVE,2,4,FALSE,1,10,10,10,Stimuli/MEG_Stimuli/intermediate/In01.png,Stimuli/MEG_Stimuli/intermediate/In02.png,Stimuli/MEG_Stimuli/intermediate/In03.png,Stimuli/MEG_Stimuli/intermediate/In06.png,49,1,,1,10,3,,,,,,,,,,,,,,,
,evan-run-trial,17,46144,0.0-17.0,,,,210.8549997,TRAIN OBSERVE,2,4,FALSE,0,10,10,10,Stimuli/MEG_Stimuli/intermediate/In01.png,Stimuli/MEG_Stimuli/intermediate/In02.png,Stimuli/MEG_Stimuli/intermediate/In03.png,Stimuli/MEG_Stimuli/intermediate/In06.png,49,1,,2,10,3,,,,,,,,,,,,,,,
,evan-run-trial,18,48680,0.0-18.0,,,,303.0599998,TRAIN OBSERVE,2,4,FALSE,1,10,10,10,Stimuli/MEG_Stimuli/intermediate/In01.png,Stimuli/MEG_Stimuli/intermediate/In02.png,Stimuli/MEG_Stimuli/intermediate/In03.png,Stimuli/MEG_Stimuli/intermediate/In06.png,49,1,,1,10,3,,,,,,,,,,,,,,,
,evan-info-quiz,19,50271,0.0-19.0,,,,1086.725,,,,,,,,,,,,,,,,,,,Stimuli/MEG_Stimuli/intermediate/In01.png,WALLET,TRUE,TRUE,1,51,,,,,,,,,
,evan-run-trial,20,52801,0.0-20.0,,,,272.4299999,TRAIN OBSERVE,2,4,FALSE,0,10,10,10,Stimuli/MEG_Stimuli/intermediate/In01.png,Stimuli/MEG_Stimuli/intermediate/In02.png,Stimuli/MEG_Stimuli/intermediate/In03.png,Stimuli/MEG_Stimuli/intermediate/In06.png,49,1,,2,10,3,,,,,,,,,,,,,,,
,evan-run-trial,21,55271,0.0-21.0,,,,240.5699999,TRAIN OBSERVE,2,4,FALSE,1,10,10,10,Stimuli/MEG_Stimuli/intermediate/In01.png,Stimuli/MEG_Stimuli/intermediate/In02.png,Stimuli/MEG_Stimuli/intermediate/In03.png,Stimuli/MEG_Stimuli/intermediate/In06.png,49,1,,1,10,3,,,,,,,,,,,,,,,
,evan-info-quiz,22,56639,0.0-22.0,,,,864.0950001,,,,,,,,,,,,,,,,,,,Stimuli/MEG_Stimuli/intermediate/In01.png,WALLET,TRUE,TRUE,1,51,,,,,,,,,
,evan-run-trial,23,59223,0.0-23.0,,,,353.5249997,TRAIN OBSERVE,2,4,FALSE,0,10,10,10,Stimuli/MEG_Stimuli/intermediate/In01.png,Stimuli/MEG_Stimuli/intermediate/In02.png,Stimuli/MEG_Stimuli/intermediate/In03.png,Stimuli/MEG_Stimuli/intermediate/In06.png,49,1,,2,10,3,,,,,,,,,,,,,,,
,evan-info-quiz,24,61215,0.0-24.0,,,,1487.985,,,,,,,,,,,,,,,,,,,Stimuli/MEG_Stimuli/intermediate/In06.png,BARRELL,FALSE,FALSE,1,49,,,,,,,,,
,evan-run-trial,25,63761,0.0-25.0,,,,289.9349998,TRAIN OBSERVE,2,4,FALSE,1,10,10,10,Stimuli/MEG_Stimuli/intermediate/In01.png,Stimuli/MEG_Stimuli/intermediate/In02.png,Stimuli/MEG_Stimuli/intermediate/In03.png,Stimuli/MEG_Stimuli/intermediate/In06.png,49,1,,1,10,3,,,,,,,,,,,,,,,
,evan-run-trial,26,66296,0.0-26.0,,,,303.9299999,TRAIN OBSERVE,2,4,FALSE,1,10,10,10,Stimuli/MEG_Stimuli/intermediate/In01.png,Stimuli/MEG_Stimuli/intermediate/In02.png,Stimuli/MEG_Stimuli/intermediate/In03.png,Stimuli/MEG_Stimuli/intermediate/In06.png,49,1,,1,10,3,,,,,,,,,,,,,,,
,evan-run-trial,27,68815,0.0-27.0,,,,279.8450002,TRAIN OBSERVE,2,4,FALSE,1,10,10,10,Stimuli/MEG_Stimuli/intermediate/In01.png,Stimuli/MEG_Stimuli/intermediate/In02.png,Stimuli/MEG_Stimuli/intermediate/In03.png,Stimuli/MEG_Stimuli/intermediate/In06.png,49,1,,1,10,3,,,,,,,,,,,,,,,
,evan-display-text,28,80906,0.0-28.0,You'll now make some choices between the MARBLES and the BARRELL machines to earn points!,Press 1 to select the LEFT machine and 2 to select the RIGHT machine.,"Before each choice, you'll be shown the number of points for each banknote. Pay attention!",12089.57,TRAIN INFO,,,,,,,,,,,,,,,,,,,,,,,,,,,,,,,,
,evan-two-stim-choice,29,89799,0.0-29.0,,,,1974.82,TRAIN CHOICE,1,4,,,,0,10,Stimuli/MEG_Stimuli/intermediate/In01.png,Stimuli/MEG_Stimuli/intermediate/In02.png,,,50,,,2,,,,,,,,,0.4,0.6,2,1,Stimuli/MEG_Stimuli/intermediate/In02.png,10,TRUE,2,3
,evan-two-stim-choice,30,100157,0.0-30.0,,,,3435.54,TRAIN CHOICE,1,4,,,,0,-10,Stimuli/MEG_Stimuli/intermediate/In01.png,Stimuli/MEG_Stimuli/intermediate/In02.png,,,49,,,1,,,,,,,,,0.4,0.6,1,2,Stimuli/MEG_Stimuli/intermediate/In01.png,0,TRUE,2,3
,evan-two-stim-choice,31,109798,0.0-31.0,,,,2725.775,TRAIN CHOICE,1,4,,,,0,10,Stimuli/MEG_Stimuli/intermediate/In01.png,Stimuli/MEG_Stimuli/intermediate/In02.png,,,49,,,2,,,,,,,,,0.4,0.6,1,1,Stimuli/MEG_Stimuli/intermediate/In02.png,10,TRUE,2,3
,evan-two-stim-choice,32,118923,0.0-32.0,,,,2204.495,TRAIN CHOICE,1,4,,,,0,-10,Stimuli/MEG_Stimuli/intermediate/In01.png,Stimuli/MEG_Stimuli/intermediate/In02.png,,,50,,,1,,,,,,,,,0.4,0.6,2,2,Stimuli/MEG_Stimuli/intermediate/In01.png,0,TRUE,2,3
,evan-two-stim-choice,33,126446,0.0-33.0,,,,615.9650004,TRAIN CHOICE,1,4,,,,-10,0,Stimuli/MEG_Stimuli/intermediate/In01.png,Stimuli/MEG_Stimuli/intermediate/In02.png,,,49,,,2,,,,,,,,,0.4,0.6,1,1,Stimuli/MEG_Stimuli/intermediate/In02.png,0,TRUE,2,3
,evan-two-stim-choice,34,134320,0.0-34.0,,,,948.6700003,TRAIN CHOICE,1,4,,,,0,10,Stimuli/MEG_Stimuli/intermediate/In01.png,Stimuli/MEG_Stimuli/intermediate/In02.png,,,50,,,2,,,,,,,,,0.4,0.6,2,1,Stimuli/MEG_Stimuli/intermediate/In02.png,10,TRUE,2,3
,evan-two-stim-choice,35,142160,0.0-35.0,,,,948.9500001,TRAIN CHOICE,1,4,,,,10,0,Stimuli/MEG_Stimuli/intermediate/In01.png,Stimuli/MEG_Stimuli/intermediate/In02.png,,,50,,,1,,,,,,,,,0.4,0.6,2,2,Stimuli/MEG_Stimuli/intermediate/In01.png,10,TRUE,2,3
,evan-two-stim-choice,36,150016,0.0-36.0,,,,964.5249997,TRAIN CHOICE,1,4,,,,-10,0,Stimuli/MEG_Stimuli/intermediate/In01.png,Stimuli/MEG_Stimuli/intermediate/In02.png,,,50,,,2,,,,,,,,,0.4,0.6,2,2,Stimuli/MEG_Stimuli/intermediate/In02.png,0,FALSE,2,3
,evan-two-stim-choice,37,159457,0.0-37.0,,,,2529.275,TRAIN CHOICE,1,4,,,,10,0,Stimuli/MEG_Stimuli/intermediate/In01.png,Stimuli/MEG_Stimuli/intermediate/In02.png,,,50,,,1,,,,,,,,,0.4,0.6,2,2,Stimuli/MEG_Stimuli/intermediate/In01.png,10,TRUE,2,3
,evan-two-stim-choice,38,167532,0.0-38.0,,,,1170.12,TRAIN CHOICE,1,4,,,,-10,0,Stimuli/MEG_Stimuli/intermediate/In01.png,Stimuli/MEG_Stimuli/intermediate/In02.png,,,50,,,2,,,,,,,,,0.4,0.6,2,1,Stimuli/MEG_Stimuli/intermediate/In02.png,0,TRUE,2,3
,evan-two-stim-choice,39,175805,0.0-39.0,,,,1368.69,TRAIN CHOICE,1,4,,,,10,0,Stimuli/MEG_Stimuli/intermediate/In01.png,Stimuli/MEG_Stimuli/intermediate/In02.png,,,50,,,2,,,,,,,,,0.4,0.6,2,2,Stimuli/MEG_Stimuli/intermediate/In02.png,0,TRUE,2,3
,evan-two-stim-choice,40,183996,0.0-40.0,,,,1287.315,TRAIN CHOICE,1,4,,,,0,-10,Stimuli/MEG_Stimuli/intermediate/In01.png,Stimuli/MEG_Stimuli/intermediate/In02.png,,,49,,,1,,,,,,,,,0.4,0.6,1,2,Stimuli/MEG_Stimuli/intermediate/In01.png,0,TRUE,2,3
,evan-display-text,41,189770,0.0-41.0,You'll now play the ZEBRA slot machine.,"For each game, press 1 to play the machine.",Please pay attention! There will be checks.,5772.005,TRAIN INFO,,,,,,,,,,,,,,,,,,,,,,,,,,,,,,,,
,evan-run-trial,42,192853,0.0-42.0,,,,855.2100002,TRAIN OBSERVE,2,4,FALSE,1,10,10,10,Stimuli/MEG_Stimuli/intermediate/In01.png,Stimuli/MEG_Stimuli/intermediate/In02.png,Stimuli/MEG_Stimuli/intermediate/In03.png,Stimuli/MEG_Stimuli/intermediate/In07.png,49,1,,1,10,4,,,,,,,,,,,,,,,
,evan-run-trial,43,195572,0.0-43.0,,,,490.09,TRAIN OBSERVE,2,4,FALSE,1,10,10,10,Stimuli/MEG_Stimuli/intermediate/In01.png,Stimuli/MEG_Stimuli/intermediate/In02.png,Stimuli/MEG_Stimuli/intermediate/In03.png,Stimuli/MEG_Stimuli/intermediate/In07.png,49,1,,1,10,4,,,,,,,,,,,,,,,
,evan-run-trial,44,198109,0.0-44.0,,,,300.4999999,TRAIN OBSERVE,2,4,FALSE,1,10,10,10,Stimuli/MEG_Stimuli/intermediate/In01.png,Stimuli/MEG_Stimuli/intermediate/In02.png,Stimuli/MEG_Stimuli/intermediate/In03.png,Stimuli/MEG_Stimuli/intermediate/In07.png,49,1,,1,10,4,,,,,,,,,,,,,,,
,evan-run-trial,45,200660,0.0-45.0,,,,308.1049998,TRAIN OBSERVE,2,4,FALSE,0,10,10,10,Stimuli/MEG_Stimuli/intermediate/In01.png,Stimuli/MEG_Stimuli/intermediate/In02.png,Stimuli/MEG_Stimuli/intermediate/In03.png,Stimuli/MEG_Stimuli/intermediate/In07.png,49,1,,2,10,4,,,,,,,,,,,,,,,
,evan-run-trial,46,203228,0.0-46.0,,,,316.4949999,TRAIN OBSERVE,2,4,FALSE,1,10,10,10,Stimuli/MEG_Stimuli/intermediate/In01.png,Stimuli/MEG_Stimuli/intermediate/In02.png,Stimuli/MEG_Stimuli/intermediate/In03.png,Stimuli/MEG_Stimuli/intermediate/In07.png,49,1,,1,10,4,,,,,,,,,,,,,,,
,evan-info-quiz,47,204655,0.0-47.0,,,,922.09,,,,,,,,,,,,,,,,,,,Stimuli/MEG_Stimuli/intermediate/In07.png,ZEBRA,TRUE,FALSE,1,50,,,,,,,,,
,evan-run-trial,48,210269,0.0-48.0,,,,3377.865,TRAIN OBSERVE,2,4,FALSE,1,10,10,10,Stimuli/MEG_Stimuli/intermediate/In01.png,Stimuli/MEG_Stimuli/intermediate/In02.png,Stimuli/MEG_Stimuli/intermediate/In03.png,Stimuli/MEG_Stimuli/intermediate/In07.png,49,1,,1,10,4,,,,,,,,,,,,,,,
,evan-run-trial,49,212886,0.0-49.0,,,,370.6050003,TRAIN OBSERVE,2,4,FALSE,1,10,10,10,Stimuli/MEG_Stimuli/intermediate/In01.png,Stimuli/MEG_Stimuli/intermediate/In02.png,Stimuli/MEG_Stimuli/intermediate/In03.png,Stimuli/MEG_Stimuli/intermediate/In07.png,49,1,,1,10,4,,,,,,,,,,,,,,,
,evan-run-trial,50,215506,0.0-50.0,,,,394.5049997,TRAIN OBSERVE,2,4,FALSE,1,10,10,10,Stimuli/MEG_Stimuli/intermediate/In01.png,Stimuli/MEG_Stimuli/intermediate/In02.png,Stimuli/MEG_Stimuli/intermediate/In03.png,Stimuli/MEG_Stimuli/intermediate/In07.png,49,1,,1,10,4,,,,,,,,,,,,,,,
,evan-info-quiz,51,216991,0.0-51.0,,,,979.15,,,,,,,,,,,,,,,,,,,Stimuli/MEG_Stimuli/intermediate/In01.png,WALLET,FALSE,TRUE,1,49,,,,,,,,,
,evan-run-trial,52,219643,0.0-52.0,,,,416.9700001,TRAIN OBSERVE,2,4,FALSE,0,10,10,10,Stimuli/MEG_Stimuli/intermediate/In01.png,Stimuli/MEG_Stimuli/intermediate/In02.png,Stimuli/MEG_Stimuli/intermediate/In03.png,Stimuli/MEG_Stimuli/intermediate/In07.png,49,1,,2,10,4,,,,,,,,,,,,,,,
,evan-info-quiz,53,220848,0.0-53.0,,,,700.6200003,,,,,,,,,,,,,,,,,,,Stimuli/MEG_Stimuli/intermediate/In02.png,SCISSORS,FALSE,TRUE,1,50,,,,,,,,,
,evan-run-trial,54,223495,0.0-54.0,,,,399.5850002,TRAIN OBSERVE,2,4,FALSE,1,10,10,10,Stimuli/MEG_Stimuli/intermediate/In01.png,Stimuli/MEG_Stimuli/intermediate/In02.png,Stimuli/MEG_Stimuli/intermediate/In03.png,Stimuli/MEG_Stimuli/intermediate/In07.png,49,1,,1,10,4,,,,,,,,,,,,,,,
,evan-display-text,55,227898,0.0-55.0,You'll now play the KEY slot machine.,"For each game, press 1 to play the machine.",Please pay attention! There will be checks.,4401.175,TRAIN INFO,,,,,,,,,,,,,,,,,,,,,,,,,,,,,,,,
,evan-run-trial,56,230603,0.0-56.0,,,,469.3999998,TRAIN OBSERVE,2,4,FALSE,0,10,10,10,Stimuli/MEG_Stimuli/intermediate/In01.png,Stimuli/MEG_Stimuli/intermediate/In02.png,Stimuli/MEG_Stimuli/intermediate/In03.png,Stimuli/MEG_Stimuli/intermediate/In04.png,49,1,,2,10,1,,,,,,,,,,,,,,,
,evan-info-quiz,57,233375,0.0-57.0,,,,2268.44,,,,,,,,,,,,,,,,,,,Stimuli/MEG_Stimuli/intermediate/In04.png,KEY,FALSE,FALSE,1,52,,,,,,,,,
,evan-run-trial,58,236040,0.0-58.0,,,,434.4350002,TRAIN OBSERVE,2,4,FALSE,0,10,10,10,Stimuli/MEG_Stimuli/intermediate/In01.png,Stimuli/MEG_Stimuli/intermediate/In02.png,Stimuli/MEG_Stimuli/intermediate/In03.png,Stimuli/MEG_Stimuli/intermediate/In04.png,49,1,,2,10,1,,,,,,,,,,,,,,,
,evan-run-trial,59,238826,0.0-59.0,,,,535.5199999,TRAIN OBSERVE,2,4,FALSE,0,10,10,10,Stimuli/MEG_Stimuli/intermediate/In01.png,Stimuli/MEG_Stimuli/intermediate/In02.png,Stimuli/MEG_Stimuli/intermediate/In03.png,Stimuli/MEG_Stimuli/intermediate/In04.png,49,1,,2,10,1,,,,,,,,,,,,,,,
,evan-run-trial,60,241295,0.0-60.0,,,,230.9599998,TRAIN OBSERVE,2,4,FALSE,0,10,10,10,Stimuli/MEG_Stimuli/intermediate/In01.png,Stimuli/MEG_Stimuli/intermediate/In02.png,Stimuli/MEG_Stimuli/intermediate/In03.png,Stimuli/MEG_Stimuli/intermediate/In04.png,49,1,,2,10,1,,,,,,,,,,,,,,,
,evan-run-trial,61,243798,0.0-61.0,,,,257.0400001,TRAIN OBSERVE,2,4,FALSE,0,10,10,10,Stimuli/MEG_Stimuli/intermediate/In01.png,Stimuli/MEG_Stimuli/intermediate/In02.png,Stimuli/MEG_Stimuli/intermediate/In03.png,Stimuli/MEG_Stimuli/intermediate/In04.png,49,1,,2,10,1,,,,,,,,,,,,,,,
,evan-run-trial,62,246248,0.0-62.0,,,,202.5950002,TRAIN OBSERVE,2,4,FALSE,1,10,10,10,Stimuli/MEG_Stimuli/intermediate/In01.png,Stimuli/MEG_Stimuli/intermediate/In02.png,Stimuli/MEG_Stimuli/intermediate/In03.png,Stimuli/MEG_Stimuli/intermediate/In04.png,49,1,,1,10,1,,,,,,,,,,,,,,,
,evan-run-trial,63,248717,0.0-63.0,,,,231.3649999,TRAIN OBSERVE,2,4,FALSE,0,10,10,10,Stimuli/MEG_Stimuli/intermediate/In01.png,Stimuli/MEG_Stimuli/intermediate/In02.png,Stimuli/MEG_Stimuli/intermediate/In03.png,Stimuli/MEG_Stimuli/intermediate/In04.png,49,1,,2,10,1,,,,,,,,,,,,,,,
,evan-run-trial,64,251269,0.0-64.0,,,,306.99,TRAIN OBSERVE,2,4,FALSE,1,10,10,10,Stimuli/MEG_Stimuli/intermediate/In01.png,Stimuli/MEG_Stimuli/intermediate/In02.png,Stimuli/MEG_Stimuli/intermediate/In03.png,Stimuli/MEG_Stimuli/intermediate/In04.png,49,1,,1,10,1,,,,,,,,,,,,,,,
,evan-info-quiz,65,252415,0.0-65.0,,,,641.425,,,,,,,,,,,,,,,,,,,Stimuli/MEG_Stimuli/intermediate/In01.png,WALLET,TRUE,TRUE,1,50,,,,,,,,,
,evan-run-trial,66,254890,0.0-66.0,,,,258.7349997,TRAIN OBSERVE,2,4,FALSE,0,10,10,10,Stimuli/MEG_Stimuli/intermediate/In01.png,Stimuli/MEG_Stimuli/intermediate/In02.png,Stimuli/MEG_Stimuli/intermediate/In03.png,Stimuli/MEG_Stimuli/intermediate/In04.png,49,1,,2,10,1,,,,,,,,,,,,,,,
,evan-info-quiz,67,256256,0.0-67.0,,,,860.8800001,,,,,,,,,,,,,,,,,,,Stimuli/MEG_Stimuli/intermediate/In02.png,SCISSORS,TRUE,TRUE,1,51,,,,,,,,,
,evan-run-trial,68,258743,0.0-68.0,,,,241.6050001,TRAIN OBSERVE,2,4,FALSE,0,10,10,10,Stimuli/MEG_Stimuli/intermediate/In01.png,Stimuli/MEG_Stimuli/intermediate/In02.png,Stimuli/MEG_Stimuli/intermediate/In03.png,Stimuli/MEG_Stimuli/intermediate/In04.png,49,1,,2,10,1,,,,,,,,,,,,,,,
,evan-display-text,69,265434,0.0-69.0,You'll now make some choices between the KEY and the ZEBRA machines to earn points!,Press 1 to select the LEFT machine and 2 to select the RIGHT machine.,"Before each choice, you'll be shown the number of points for each banknote. Pay attention!",6687.615,TRAIN INFO,,,,,,,,,,,,,,,,,,,,,,,,,,,,,,,,
,evan-two-stim-choice,70,273072,0.0-70.0,,,,715.1099998,TRAIN CHOICE,1,4,,,,0,10,Stimuli/MEG_Stimuli/intermediate/In01.png,Stimuli/MEG_Stimuli/intermediate/In02.png,,,49,,,1,,,,,,,,,0.2,0.8,1,1,Stimuli/MEG_Stimuli/intermediate/In01.png,0,TRUE,1,4
,evan-two-stim-choice,71,281062,0.0-71.0,,,,1077.205,TRAIN CHOICE,1,4,,,,10,0,Stimuli/MEG_Stimuli/intermediate/In01.png,Stimuli/MEG_Stimuli/intermediate/In02.png,,,50,,,1,,,,,,,,,0.2,0.8,2,2,Stimuli/MEG_Stimuli/intermediate/In01.png,10,TRUE,1,4
,evan-two-stim-choice,72,290302,0.0-72.0,,,,2334.805,TRAIN CHOICE,1,4,,,,0,-10,Stimuli/MEG_Stimuli/intermediate/In01.png,Stimuli/MEG_Stimuli/intermediate/In02.png,,,50,,,1,,,,,,,,,0.2,0.8,2,2,Stimuli/MEG_Stimuli/intermediate/In01.png,0,TRUE,1,4
,evan-two-stim-choice,73,298177,0.0-73.0,,,,948.7350001,TRAIN CHOICE,1,4,,,,0,10,Stimuli/MEG_Stimuli/intermediate/In01.png,Stimuli/MEG_Stimuli/intermediate/In02.png,,,49,,,2,,,,,,,,,0.2,0.8,1,1,Stimuli/MEG_Stimuli/intermediate/In02.png,10,TRUE,1,4
,evan-two-stim-choice,74,306833,0.0-74.0,,,,1731.5,TRAIN CHOICE,1,4,,,,0,-10,Stimuli/MEG_Stimuli/intermediate/In01.png,Stimuli/MEG_Stimuli/intermediate/In02.png,,,50,,,1,,,,,,,,,0.2,0.8,2,2,Stimuli/MEG_Stimuli/intermediate/In01.png,0,TRUE,1,4
,evan-two-stim-choice,75,314306,0.0-75.0,,,,577.6399998,TRAIN CHOICE,1,4,,,,0,10,Stimuli/MEG_Stimuli/intermediate/In01.png,Stimuli/MEG_Stimuli/intermediate/In02.png,,,50,,,2,,,,,,,,,0.2,0.8,2,1,Stimuli/MEG_Stimuli/intermediate/In02.png,10,TRUE,1,4
,evan-two-stim-choice,76,322329,0.0-76.0,,,,1088.555,TRAIN CHOICE,1,4,,,,0,-10,Stimuli/MEG_Stimuli/intermediate/In01.png,Stimuli/MEG_Stimuli/intermediate/In02.png,,,49,,,2,,,,,,,,,0.2,0.8,1,1,Stimuli/MEG_Stimuli/intermediate/In02.png,-10,FALSE,1,4
,evan-two-stim-choice,77,331205,0.0-77.0,,,,1976.815,TRAIN CHOICE,1,4,,,,-10,0,Stimuli/MEG_Stimuli/intermediate/In01.png,Stimuli/MEG_Stimuli/intermediate/In02.png,,,50,,,2,,,,,,,,,0.2,0.8,2,1,Stimuli/MEG_Stimuli/intermediate/In02.png,0,TRUE,1,4
,evan-two-stim-choice,78,338861,0.0-78.0,,,,719.3749999,TRAIN CHOICE,1,4,,,,10,0,Stimuli/MEG_Stimuli/intermediate/In01.png,Stimuli/MEG_Stimuli/intermediate/In02.png,,,49,,,1,,,,,,,,,0.2,0.8,1,2,Stimuli/MEG_Stimuli/intermediate/In01.png,10,TRUE,1,4
,evan-two-stim-choice,79,346417,0.0-79.0,,,,646.0150001,TRAIN CHOICE,1,4,,,,-10,0,Stimuli/MEG_Stimuli/intermediate/In01.png,Stimuli/MEG_Stimuli/intermediate/In02.png,,,50,,,2,,,,,,,,,0.2,0.8,2,1,Stimuli/MEG_Stimuli/intermediate/In02.png,0,TRUE,1,4
,evan-two-stim-choice,80,354808,0.0-80.0,,,,1491.7,TRAIN CHOICE,1,4,,,,-10,0,Stimuli/MEG_Stimuli/intermediate/In01.png,Stimuli/MEG_Stimuli/intermediate/In02.png,,,49,,,1,,,,,,,,,0.2,0.8,1,2,Stimuli/MEG_Stimuli/intermediate/In01.png,-10,FALSE,1,4
,evan-two-stim-choice,81,363415,0.0-81.0,,,,1676.69,TRAIN CHOICE,1,4,,,,10,0,Stimuli/MEG_Stimuli/intermediate/In01.png,Stimuli/MEG_Stimuli/intermediate/In02.png,,,49,,,1,,,,,,,,,0.2,0.8,1,2,Stimuli/MEG_Stimuli/intermediate/In01.png,10,TRUE,1,4
,evan-display-text,82,371306,0.0-82.0,You'll now play the MARBLES slot machine.,"For each game, press 1 to play the machine.",Please pay attention! There will be checks.,7889.33,TRAIN INFO,,,,,,,,,,,,,,,,,,,,,,,,,,,,,,,,
,evan-run-trial,83,374458,0.0-83.0,,,,933.6850001,TRAIN OBSERVE,2,4,FALSE,0,10,10,10,Stimuli/MEG_Stimuli/intermediate/In01.png,Stimuli/MEG_Stimuli/intermediate/In02.png,Stimuli/MEG_Stimuli/intermediate/In03.png,Stimuli/MEG_Stimuli/intermediate/In05.png,49,1,,2,10,2,,,,,,,,,,,,,,,
,evan-run-trial,84,377110,0.0-84.0,,,,420.9050001,TRAIN OBSERVE,2,4,FALSE,1,10,10,10,Stimuli/MEG_Stimuli/intermediate/In01.png,Stimuli/MEG_Stimuli/intermediate/In02.png,Stimuli/MEG_Stimuli/intermediate/In03.png,Stimuli/MEG_Stimuli/intermediate/In05.png,49,1,,1,10,2,,,,,,,,,,,,,,,
,evan-info-quiz,85,379406,0.0-85.0,,,,1792.28,,,,,,,,,,,,,,,,,,,Stimuli/MEG_Stimuli/intermediate/In01.png,WALLET,TRUE,TRUE,1,49,,,,,,,,,
,evan-run-trial,86,381965,0.0-86.0,,,,321.1099999,TRAIN OBSERVE,2,4,FALSE,0,10,10,10,Stimuli/MEG_Stimuli/intermediate/In01.png,Stimuli/MEG_Stimuli/intermediate/In02.png,Stimuli/MEG_Stimuli/intermediate/In03.png,Stimuli/MEG_Stimuli/intermediate/In05.png,49,1,,2,10,2,,,,,,,,,,,,,,,
,evan-run-trial,87,384466,0.0-87.0,,,,274.8050001,TRAIN OBSERVE,2,4,FALSE,0,10,10,10,Stimuli/MEG_Stimuli/intermediate/In01.png,Stimuli/MEG_Stimuli/intermediate/In02.png,Stimuli/MEG_Stimuli/intermediate/In03.png,Stimuli/MEG_Stimuli/intermediate/In05.png,49,1,,2,10,2,,,,,,,,,,,,,,,
,evan-info-quiz,88,385902,0.0-88.0,,,,932.67,,,,,,,,,,,,,,,,,,,Stimuli/MEG_Stimuli/intermediate/In02.png,SCISSORS,TRUE,TRUE,1,51,,,,,,,,,
,evan-run-trial,89,388387,0.0-89.0,,,,258.7549998,TRAIN OBSERVE,2,4,FALSE,0,10,10,10,Stimuli/MEG_Stimuli/intermediate/In01.png,Stimuli/MEG_Stimuli/intermediate/In02.png,Stimuli/MEG_Stimuli/intermediate/In03.png,Stimuli/MEG_Stimuli/intermediate/In05.png,49,1,,2,10,2,,,,,,,,,,,,,,,
,evan-run-trial,90,390906,0.0-90.0,,,,268.8799999,TRAIN OBSERVE,2,4,FALSE,1,10,10,10,Stimuli/MEG_Stimuli/intermediate/In01.png,Stimuli/MEG_Stimuli/intermediate/In02.png,Stimuli/MEG_Stimuli/intermediate/In03.png,Stimuli/MEG_Stimuli/intermediate/In05.png,49,1,,1,10,2,,,,,,,,,,,,,,,
,evan-run-trial,91,393407,0.0-91.0,,,,263.1050004,TRAIN OBSERVE,2,4,FALSE,0,10,10,10,Stimuli/MEG_Stimuli/intermediate/In01.png,Stimuli/MEG_Stimuli/intermediate/In02.png,Stimuli/MEG_Stimuli/intermediate/In03.png,Stimuli/MEG_Stimuli/intermediate/In05.png,49,1,,2,10,2,,,,,,,,,,,,,,,
,evan-info-quiz,92,395182,0.0-92.0,,,,1270.55,,,,,,,,,,,,,,,,,,,Stimuli/MEG_Stimuli/intermediate/In05.png,MARBLES,TRUE,FALSE,1,52,,,,,,,,,
,evan-run-trial,93,397793,0.0-93.0,,,,370.6450001,TRAIN OBSERVE,2,4,FALSE,0,10,10,10,Stimuli/MEG_Stimuli/intermediate/In01.png,Stimuli/MEG_Stimuli/intermediate/In02.png,Stimuli/MEG_Stimuli/intermediate/In03.png,Stimuli/MEG_Stimuli/intermediate/In05.png,49,1,,2,10,2,,,,,,,,,,,,,,,
,evan-run-trial,94,400162,0.0-94.0,,,,143.3999999,TRAIN OBSERVE,2,4,FALSE,1,10,10,10,Stimuli/MEG_Stimuli/intermediate/In01.png,Stimuli/MEG_Stimuli/intermediate/In02.png,Stimuli/MEG_Stimuli/intermediate/In03.png,Stimuli/MEG_Stimuli/intermediate/In05.png,49,1,,1,10,2,,,,,,,,,,,,,,,
,evan-run-trial,95,402782,0.0-95.0,,,,383.2450002,TRAIN OBSERVE,2,4,FALSE,1,10,10,10,Stimuli/MEG_Stimuli/intermediate/In01.png,Stimuli/MEG_Stimuli/intermediate/In02.png,Stimuli/MEG_Stimuli/intermediate/In03.png,Stimuli/MEG_Stimuli/intermediate/In05.png,49,1,,1,10,2,,,,,,,,,,,,,,,
,evan-display-text,96,405769,0.0-96.0,You'll now play the KEY slot machine.,"For each game, press 1 to play the machine.",Please pay attention! There will be checks.,2986.275,TRAIN INFO,,,,,,,,,,,,,,,,,,,,,,,,,,,,,,,,
,evan-run-trial,97,408370,0.0-97.0,,,,358.9300001,TRAIN OBSERVE,2,4,FALSE,0,10,10,10,Stimuli/MEG_Stimuli/intermediate/In01.png,Stimuli/MEG_Stimuli/intermediate/In02.png,Stimuli/MEG_Stimuli/intermediate/In03.png,Stimuli/MEG_Stimuli/intermediate/In04.png,49,1,,2,10,1,,,,,,,,,,,,,,,
,evan-run-trial,98,410839,0.0-98.0,,,,222.6650002,TRAIN OBSERVE,2,4,FALSE,0,10,10,10,Stimuli/MEG_Stimuli/intermediate/In01.png,Stimuli/MEG_Stimuli/intermediate/In02.png,Stimuli/MEG_Stimuli/intermediate/In03.png,Stimuli/MEG_Stimuli/intermediate/In04.png,49,1,,2,10,1,,,,,,,,,,,,,,,
,evan-run-trial,99,413374,0.0-99.0,,,,298.0050002,TRAIN OBSERVE,2,4,FALSE,0,10,10,10,Stimuli/MEG_Stimuli/intermediate/In01.png,Stimuli/MEG_Stimuli/intermediate/In02.png,Stimuli/MEG_Stimuli/intermediate/In03.png,Stimuli/MEG_Stimuli/intermediate/In04.png,49,1,,2,10,1,,,,,,,,,,,,,,,
,evan-run-trial,100,415910,0.0-100.0,,,,290.9049997,TRAIN OBSERVE,2,4,FALSE,0,10,10,10,Stimuli/MEG_Stimuli/intermediate/In01.png,Stimuli/MEG_Stimuli/intermediate/In02.png,Stimuli/MEG_Stimuli/intermediate/In03.png,Stimuli/MEG_Stimuli/intermediate/In04.png,49,1,,2,10,1,,,,,,,,,,,,,,,
,evan-run-trial,101,418428,0.0-101.0,,,,266.6699998,TRAIN OBSERVE,2,4,FALSE,0,10,10,10,Stimuli/MEG_Stimuli/intermediate/In01.png,Stimuli/MEG_Stimuli/intermediate/In02.png,Stimuli/MEG_Stimuli/intermediate/In03.png,Stimuli/MEG_Stimuli/intermediate/In04.png,49,1,,2,10,1,,,,,,,,,,,,,,,
,evan-run-trial,102,420997,0.0-102.0,,,,323.0599998,TRAIN OBSERVE,2,4,FALSE,0,10,10,10,Stimuli/MEG_Stimuli/intermediate/In01.png,Stimuli/MEG_Stimuli/intermediate/In02.png,Stimuli/MEG_Stimuli/intermediate/In03.png,Stimuli/MEG_Stimuli/intermediate/In04.png,49,1,,2,10,1,,,,,,,,,,,,,,,
,evan-run-trial,103,423417,0.0-103.0,,,,187.285,TRAIN OBSERVE,2,4,FALSE,0,10,10,10,Stimuli/MEG_Stimuli/intermediate/In01.png,Stimuli/MEG_Stimuli/intermediate/In02.png,Stimuli/MEG_Stimuli/intermediate/In03.png,Stimuli/MEG_Stimuli/intermediate/In04.png,49,1,,2,10,1,,,,,,,,,,,,,,,
,evan-info-quiz,104,424943,0.0-104.0,,,,1022.265,,,,,,,,,,,,,,,,,,,Stimuli/MEG_Stimuli/intermediate/In04.png,KEY,FALSE,FALSE,1,51,,,,,,,,,
,evan-run-trial,105,427586,0.0-105.0,,,,400.1500001,TRAIN OBSERVE,2,4,FALSE,1,10,10,10,Stimuli/MEG_Stimuli/intermediate/In01.png,Stimuli/MEG_Stimuli/intermediate/In02.png,Stimuli/MEG_Stimuli/intermediate/In03.png,Stimuli/MEG_Stimuli/intermediate/In04.png,49,1,,1,10,1,,,,,,,,,,,,,,,
,evan-run-trial,106,430055,0.0-106.0,,,,220.6899999,TRAIN OBSERVE,2,4,FALSE,0,10,10,10,Stimuli/MEG_Stimuli/intermediate/In01.png,Stimuli/MEG_Stimuli/intermediate/In02.png,Stimuli/MEG_Stimuli/intermediate/In03.png,Stimuli/MEG_Stimuli/intermediate/In04.png,49,1,,2,10,1,,,,,,,,,,,,,,,
,evan-info-quiz,107,431343,0.0-107.0,,,,782.7899996,,,,,,,,,,,,,,,,,,,Stimuli/MEG_Stimuli/intermediate/In04.png,KEY,TRUE,FALSE,1,49,,,,,,,,,
,evan-run-trial,108,433942,0.0-108.0,,,,352.9400001,TRAIN OBSERVE,2,4,FALSE,1,10,10,10,Stimuli/MEG_Stimuli/intermediate/In01.png,Stimuli/MEG_Stimuli/intermediate/In02.png,Stimuli/MEG_Stimuli/intermediate/In03.png,Stimuli/MEG_Stimuli/intermediate/In04.png,49,1,,1,10,1,,,,,,,,,,,,,,,
,evan-display-text,109,437306,0.0-109.0,You'll now make some choices between the KEY and the MARBLES machines to earn points!,Press 1 to select the LEFT machine and 2 to select the RIGHT machine.,"Before each choice, you'll be shown the number of points for each banknote. Pay attention!",3361.94,TRAIN INFO,,,,,,,,,,,,,,,,,,,,,,,,,,,,,,,,
,evan-two-stim-choice,110,446670,0.0-110.0,,,,2469.02,TRAIN CHOICE,1,4,,,,-10,0,Stimuli/MEG_Stimuli/intermediate/In01.png,Stimuli/MEG_Stimuli/intermediate/In02.png,,,50,,,1,,,,,,,,,0.2,0.4,2,1,Stimuli/MEG_Stimuli/intermediate/In01.png,-10,TRUE,1,2
,evan-two-stim-choice,111,454242,0.0-111.0,,,,663.2999997,TRAIN CHOICE,1,4,,,,0,-10,Stimuli/MEG_Stimuli/intermediate/In01.png,Stimuli/MEG_Stimuli/intermediate/In02.png,,,50,,,1,,,,,,,,,0.2,0.4,2,2,Stimuli/MEG_Stimuli/intermediate/In01.png,0,TRUE,1,2
,evan-two-stim-choice,112,463649,0.0-112.0,,,,2512.685,TRAIN CHOICE,1,4,,,,0,-10,Stimuli/MEG_Stimuli/intermediate/In01.png,Stimuli/MEG_Stimuli/intermediate/In02.png,,,49,,,2,,,,,,,,,0.2,0.4,1,2,Stimuli/MEG_Stimuli/intermediate/In02.png,-10,TRUE,1,2
,evan-two-stim-choice,113,472241,0.0-113.0,,,,1698.03,TRAIN CHOICE,1,4,,,,10,0,Stimuli/MEG_Stimuli/intermediate/In01.png,Stimuli/MEG_Stimuli/intermediate/In02.png,,,50,,,2,,,,,,,,,0.2,0.4,2,2,Stimuli/MEG_Stimuli/intermediate/In02.png,0,TRUE,1,2
,evan-two-stim-choice,114,479746,0.0-114.0,,,,593.7350001,TRAIN CHOICE,1,4,,,,0,10,Stimuli/MEG_Stimuli/intermediate/In01.png,Stimuli/MEG_Stimuli/intermediate/In02.png,,,50,,,2,,,,,,,,,0.2,0.4,2,1,Stimuli/MEG_Stimuli/intermediate/In02.png,10,TRUE,1,2
,evan-two-stim-choice,115,490172,0.0-115.0,,,,3503.895,TRAIN CHOICE,1,4,,,,-10,0,Stimuli/MEG_Stimuli/intermediate/In01.png,Stimuli/MEG_Stimuli/intermediate/In02.png,,,50,,,1,,,,,,,,,0.2,0.4,2,1,Stimuli/MEG_Stimuli/intermediate/In01.png,-10,TRUE,1,2
,evan-two-stim-choice,116,498129,0.0-116.0,,,,1062.045,TRAIN CHOICE,1,4,,,,10,0,Stimuli/MEG_Stimuli/intermediate/In01.png,Stimuli/MEG_Stimuli/intermediate/In02.png,,,49,,,2,,,,,,,,,0.2,0.4,1,2,Stimuli/MEG_Stimuli/intermediate/In02.png,0,TRUE,1,2
,evan-two-stim-choice,117,509072,0.0-117.0,,,,4034.905,TRAIN CHOICE,1,4,,,,0,-10,Stimuli/MEG_Stimuli/intermediate/In01.png,Stimuli/MEG_Stimuli/intermediate/In02.png,,,49,,,2,,,,,,,,,0.2,0.4,1,2,Stimuli/MEG_Stimuli/intermediate/In02.png,-10,TRUE,1,2
,evan-two-stim-choice,118,516845,0.0-118.0,,,,836.1249999,TRAIN CHOICE,1,4,,,,0,10,Stimuli/MEG_Stimuli/intermediate/In01.png,Stimuli/MEG_Stimuli/intermediate/In02.png,,,49,,,2,,,,,,,,,0.2,0.4,1,1,Stimuli/MEG_Stimuli/intermediate/In02.png,10,TRUE,1,2
,evan-two-stim-choice,119,524270,0.0-119.0,,,,518.0199998,TRAIN CHOICE,1,4,,,,10,0,Stimuli/MEG_Stimuli/intermediate/In01.png,Stimuli/MEG_Stimuli/intermediate/In02.png,,,50,,,2,,,,,,,,,0.2,0.4,2,2,Stimuli/MEG_Stimuli/intermediate/In02.png,0,TRUE,1,2
,evan-two-stim-choice,120,532075,0.0-120.0,,,,887.1249999,TRAIN CHOICE,1,4,,,,-10,0,Stimuli/MEG_Stimuli/intermediate/In01.png,Stimuli/MEG_Stimuli/intermediate/In02.png,,,50,,,2,,,,,,,,,0.2,0.4,2,1,Stimuli/MEG_Stimuli/intermediate/In02.png,0,TRUE,1,2
,evan-two-stim-choice,121,539699,0.0-121.0,,,,728.9450001,TRAIN CHOICE,1,4,,,,0,10,Stimuli/MEG_Stimuli/intermediate/In01.png,Stimuli/MEG_Stimuli/intermediate/In02.png,,,50,,,2,,,,,,,,,0.2,0.4,2,1,Stimuli/MEG_Stimuli/intermediate/In02.png,10,TRUE,1,2
,evan-display-text,122,548298,0.0-122.0,You'll now play the ZEBRA slot machine.,"For each game, press 1 to play the machine.",Please pay attention! There will be checks.,8597.355,TRAIN INFO,,,,,,,,,,,,,,,,,,,,,,,,,,,,,,,,
,evan-run-trial,123,551175,0.0-123.0,,,,631.1149998,TRAIN OBSERVE,2,4,FALSE,1,10,10,10,Stimuli/MEG_Stimuli/intermediate/In01.png,Stimuli/MEG_Stimuli/intermediate/In02.png,Stimuli/MEG_Stimuli/intermediate/In03.png,Stimuli/MEG_Stimuli/intermediate/In07.png,49,1,,1,10,4,,,,,,,,,,,,,,,
,evan-run-trial,124,553761,0.0-124.0,,,,328.77,TRAIN OBSERVE,2,4,FALSE,1,10,10,10,Stimuli/MEG_Stimuli/intermediate/In01.png,Stimuli/MEG_Stimuli/intermediate/In02.png,Stimuli/MEG_Stimuli/intermediate/In03.png,Stimuli/MEG_Stimuli/intermediate/In07.png,49,1,,1,10,4,,,,,,,,,,,,,,,
,evan-run-trial,125,556280,0.0-125.0,,,,271.6349997,TRAIN OBSERVE,2,4,FALSE,1,10,10,10,Stimuli/MEG_Stimuli/intermediate/In01.png,Stimuli/MEG_Stimuli/intermediate/In02.png,Stimuli/MEG_Stimuli/intermediate/In03.png,Stimuli/MEG_Stimuli/intermediate/In07.png,49,1,,1,10,4,,,,,,,,,,,,,,,
,evan-run-trial,126,558781,0.0-126.0,,,,248.4749998,TRAIN OBSERVE,2,4,FALSE,0,10,10,10,Stimuli/MEG_Stimuli/intermediate/In01.png,Stimuli/MEG_Stimuli/intermediate/In02.png,Stimuli/MEG_Stimuli/intermediate/In03.png,Stimuli/MEG_Stimuli/intermediate/In07.png,49,1,,2,10,4,,,,,,,,,,,,,,,
,evan-run-trial,127,561250,0.0-127.0,,,,227.0150003,TRAIN OBSERVE,2,4,FALSE,1,10,10,10,Stimuli/MEG_Stimuli/intermediate/In01.png,Stimuli/MEG_Stimuli/intermediate/In02.png,Stimuli/MEG_Stimuli/intermediate/In03.png,Stimuli/MEG_Stimuli/intermediate/In07.png,49,1,,1,10,4,,,,,,,,,,,,,,,
,evan-run-trial,128,563752,0.0-128.0,,,,270.0450001,TRAIN OBSERVE,2,4,FALSE,1,10,10,10,Stimuli/MEG_Stimuli/intermediate/In01.png,Stimuli/MEG_Stimuli/intermediate/In02.png,Stimuli/MEG_Stimuli/intermediate/In03.png,Stimuli/MEG_Stimuli/intermediate/In07.png,49,1,,1,10,4,,,,,,,,,,,,,,,
,evan-run-trial,129,566288,0.0-129.0,,,,280.2900001,TRAIN OBSERVE,2,4,FALSE,1,10,10,10,Stimuli/MEG_Stimuli/intermediate/In01.png,Stimuli/MEG_Stimuli/intermediate/In02.png,Stimuli/MEG_Stimuli/intermediate/In03.png,Stimuli/MEG_Stimuli/intermediate/In07.png,49,1,,1,10,4,,,,,,,,,,,,,,,
,evan-run-trial,130,568757,0.0-130.0,,,,225.5200003,TRAIN OBSERVE,2,4,FALSE,0,10,10,10,Stimuli/MEG_Stimuli/intermediate/In01.png,Stimuli/MEG_Stimuli/intermediate/In02.png,Stimuli/MEG_Stimuli/intermediate/In03.png,Stimuli/MEG_Stimuli/intermediate/In07.png,49,1,,2,10,4,,,,,,,,,,,,,,,
,evan-info-quiz,131,570816,0.0-131.0,,,,1553.655,,,,,,,,,,,,,,,,,,,Stimuli/MEG_Stimuli/intermediate/In02.png,SCISSORS,TRUE,TRUE,1,51,,,,,,,,,
,evan-run-trial,132,573361,0.0-132.0,,,,289.2099996,TRAIN OBSERVE,2,4,FALSE,1,10,10,10,Stimuli/MEG_Stimuli/intermediate/In01.png,Stimuli/MEG_Stimuli/intermediate/In02.png,Stimuli/MEG_Stimuli/intermediate/In03.png,Stimuli/MEG_Stimuli/intermediate/In07.png,49,1,,1,10,4,,,,,,,,,,,,,,,
,evan-info-quiz,133,575151,0.0-133.0,,,,1285.75,,,,,,,,,,,,,,,,,,,Stimuli/MEG_Stimuli/intermediate/In07.png,ZEBRA,TRUE,FALSE,1,50,,,,,,,,,
,evan-run-trial,134,578065,0.0-134.0,,,,673.6100004,TRAIN OBSERVE,2,4,FALSE,1,10,10,10,Stimuli/MEG_Stimuli/intermediate/In01.png,Stimuli/MEG_Stimuli/intermediate/In02.png,Stimuli/MEG_Stimuli/intermediate/In03.png,Stimuli/MEG_Stimuli/intermediate/In07.png,49,1,,1,10,4,,,,,,,,,,,,,,,
,evan-display-text,135,585130,0.0-135.0,You'll now play the BARRELL slot machine.,"For each game, press 1 to play the machine.",Please pay attention! There will be checks.,7063.265,TRAIN INFO,,,,,,,,,,,,,,,,,,,,,,,,,,,,,,,,
,evan-run-trial,136,588089,0.0-136.0,,,,726.7200002,TRAIN OBSERVE,2,4,FALSE,1,10,10,10,Stimuli/MEG_Stimuli/intermediate/In01.png,Stimuli/MEG_Stimuli/intermediate/In02.png,Stimuli/MEG_Stimuli/intermediate/In03.png,Stimuli/MEG_Stimuli/intermediate/In06.png,49,1,,1,10,3,,,,,,,,,,,,,,,
,evan-run-trial,137,590626,0.0-137.0,,,,279.5000002,TRAIN OBSERVE,2,4,FALSE,0,10,10,10,Stimuli/MEG_Stimuli/intermediate/In01.png,Stimuli/MEG_Stimuli/intermediate/In02.png,Stimuli/MEG_Stimuli/intermediate/In03.png,Stimuli/MEG_Stimuli/intermediate/In06.png,49,1,,2,10,3,,,,,,,,,,,,,,,
,evan-run-trial,138,593111,0.0-138.0,,,,237.3799998,TRAIN OBSERVE,2,4,FALSE,1,10,10,10,Stimuli/MEG_Stimuli/intermediate/In01.png,Stimuli/MEG_Stimuli/intermediate/In02.png,Stimuli/MEG_Stimuli/intermediate/In03.png,Stimuli/MEG_Stimuli/intermediate/In06.png,49,1,,1,10,3,,,,,,,,,,,,,,,
,evan-run-trial,139,595578,0.0-139.0,,,,218.5149998,TRAIN OBSERVE,2,4,FALSE,1,10,10,10,Stimuli/MEG_Stimuli/intermediate/In01.png,Stimuli/MEG_Stimuli/intermediate/In02.png,Stimuli/MEG_Stimuli/intermediate/In03.png,Stimuli/MEG_Stimuli/intermediate/In06.png,49,1,,1,10,3,,,,,,,,,,,,,,,
,evan-run-trial,140,598048,0.0-140.0,,,,230.5699997,TRAIN OBSERVE,2,4,FALSE,1,10,10,10,Stimuli/MEG_Stimuli/intermediate/In01.png,Stimuli/MEG_Stimuli/intermediate/In02.png,Stimuli/MEG_Stimuli/intermediate/In03.png,Stimuli/MEG_Stimuli/intermediate/In06.png,49,1,,1,10,3,,,,,,,,,,,,,,,
,evan-run-trial,141,600534,0.0-141.0,,,,257.0849997,TRAIN OBSERVE,2,4,FALSE,0,10,10,10,Stimuli/MEG_Stimuli/intermediate/In01.png,Stimuli/MEG_Stimuli/intermediate/In02.png,Stimuli/MEG_Stimuli/intermediate/In03.png,Stimuli/MEG_Stimuli/intermediate/In06.png,49,1,,2,10,3,,,,,,,,,,,,,,,
,evan-run-trial,142,603103,0.0-142.0,,,,314.2400002,TRAIN OBSERVE,2,4,FALSE,0,10,10,10,Stimuli/MEG_Stimuli/intermediate/In01.png,Stimuli/MEG_Stimuli/intermediate/In02.png,Stimuli/MEG_Stimuli/intermediate/In03.png,Stimuli/MEG_Stimuli/intermediate/In06.png,49,1,,2,10,3,,,,,,,,,,,,,,,
,evan-run-trial,143,605588,0.0-143.0,,,,240.3249997,TRAIN OBSERVE,2,4,FALSE,0,10,10,10,Stimuli/MEG_Stimuli/intermediate/In01.png,Stimuli/MEG_Stimuli/intermediate/In02.png,Stimuli/MEG_Stimuli/intermediate/In03.png,Stimuli/MEG_Stimuli/intermediate/In06.png,49,1,,2,10,3,,,,,,,,,,,,,,,
,evan-run-trial,144,608123,0.0-144.0,,,,301.1850002,TRAIN OBSERVE,2,4,FALSE,1,10,10,10,Stimuli/MEG_Stimuli/intermediate/In01.png,Stimuli/MEG_Stimuli/intermediate/In02.png,Stimuli/MEG_Stimuli/intermediate/In03.png,Stimuli/MEG_Stimuli/intermediate/In06.png,49,1,,1,10,3,,,,,,,,,,,,,,,
,evan-run-trial,145,610593,0.0-145.0,,,,213.4500002,TRAIN OBSERVE,2,4,FALSE,1,10,10,10,Stimuli/MEG_Stimuli/intermediate/In01.png,Stimuli/MEG_Stimuli/intermediate/In02.png,Stimuli/MEG_Stimuli/intermediate/In03.png,Stimuli/MEG_Stimuli/intermediate/In06.png,49,1,,1,10,3,,,,,,,,,,,,,,,
,evan-display-text,146,615513,0.0-146.0,You'll now make some choices between the BARRELL and the ZEBRA machines to earn points!,Press 1 to select the LEFT machine and 2 to select the RIGHT machine.,"Before each choice, you'll be shown the number of points for each banknote. Pay attention!",4919.365,TRAIN INFO,,,,,,,,,,,,,,,,,,,,,,,,,,,,,,,,
,evan-two-stim-choice,147,623353,0.0-147.0,,,,953.5349999,TRAIN CHOICE,1,4,,,,10,0,Stimuli/MEG_Stimuli/intermediate/In01.png,Stimuli/MEG_Stimuli/intermediate/In02.png,,,50,,,1,,,,,,,,,0.6,0.8,2,2,Stimuli/MEG_Stimuli/intermediate/In01.png,10,TRUE,3,4
,evan-two-stim-choice,148,631644,0.0-148.0,,,,1371.845,TRAIN CHOICE,1,4,,,,-10,0,Stimuli/MEG_Stimuli/intermediate/In01.png,Stimuli/MEG_Stimuli/intermediate/In02.png,,,49,,,1,,,,,,,,,0.6,0.8,1,1,Stimuli/MEG_Stimuli/intermediate/In01.png,-10,TRUE,3,4
,evan-two-stim-choice,149,641084,0.0-149.0,,,,2519.71,TRAIN CHOICE,1,4,,,,0,10,Stimuli/MEG_Stimuli/intermediate/In01.png,Stimuli/MEG_Stimuli/intermediate/In02.png,,,49,,,2,,,,,,,,,0.6,0.8,1,1,Stimuli/MEG_Stimuli/intermediate/In02.png,10,TRUE,3,4
,evan-two-stim-choice,150,652878,0.0-150.0,,,,4901.65,TRAIN CHOICE,1,4,,,,0,10,Stimuli/MEG_Stimuli/intermediate/In01.png,Stimuli/MEG_Stimuli/intermediate/In02.png,,,50,,,1,,,,,,,,,0.6,0.8,2,1,Stimuli/MEG_Stimuli/intermediate/In01.png,0,TRUE,3,4
,evan-two-stim-choice,151,662052,0.0-151.0,,,,2260.835,TRAIN CHOICE,1,4,,,,-10,0,Stimuli/MEG_Stimuli/intermediate/In01.png,Stimuli/MEG_Stimuli/intermediate/In02.png,,,49,,,1,,,,,,,,,0.6,0.8,1,1,Stimuli/MEG_Stimuli/intermediate/In01.png,-10,TRUE,3,4
,evan-two-stim-choice,152,669507,0.0-152.0,,,,542.5550002,TRAIN CHOICE,1,4,,,,10,0,Stimuli/MEG_Stimuli/intermediate/In01.png,Stimuli/MEG_Stimuli/intermediate/In02.png,,,50,,,2,,,,,,,,,0.6,0.8,2,2,Stimuli/MEG_Stimuli/intermediate/In02.png,0,TRUE,3,4
,evan-two-stim-choice,153,678150,0.0-153.0,,,,1726.175,TRAIN CHOICE,1,4,,,,0,-10,Stimuli/MEG_Stimuli/intermediate/In01.png,Stimuli/MEG_Stimuli/intermediate/In02.png,,,50,,,1,,,,,,,,,0.6,0.8,2,2,Stimuli/MEG_Stimuli/intermediate/In01.png,0,TRUE,3,4
,evan-two-stim-choice,154,686507,0.0-154.0,,,,1421.345,TRAIN CHOICE,1,4,,,,-10,0,Stimuli/MEG_Stimuli/intermediate/In01.png,Stimuli/MEG_Stimuli/intermediate/In02.png,,,50,,,1,,,,,,,,,0.6,0.8,2,1,Stimuli/MEG_Stimuli/intermediate/In01.png,-10,TRUE,3,4
,evan-two-stim-choice,155,695015,0.0-155.0,,,,1611.62,TRAIN CHOICE,1,4,,,,10,0,Stimuli/MEG_Stimuli/intermediate/In01.png,Stimuli/MEG_Stimuli/intermediate/In02.png,,,50,,,1,,,,,,,,,0.6,0.8,2,1,Stimuli/MEG_Stimuli/intermediate/In01.png,10,FALSE,3,4
,evan-two-stim-choice,156,703055,0.0-156.0,,,,1100.905,TRAIN CHOICE,1,4,,,,0,-10,Stimuli/MEG_Stimuli/intermediate/In01.png,Stimuli/MEG_Stimuli/intermediate/In02.png,,,50,,,2,,,,,,,,,0.6,0.8,2,1,Stimuli/MEG_Stimuli/intermediate/In02.png,-10,FALSE,3,4
,evan-two-stim-choice,157,710527,0.0-157.0,,,,565.0149998,TRAIN CHOICE,1,4,,,,0,10,Stimuli/MEG_Stimuli/intermediate/In01.png,Stimuli/MEG_Stimuli/intermediate/In02.png,,,49,,,2,,,,,,,,,0.6,0.8,1,1,Stimuli/MEG_Stimuli/intermediate/In02.png,10,TRUE,3,4
,evan-two-stim-choice,158,719002,0.0-158.0,,,,1572.99,TRAIN CHOICE,1,4,,,,0,-10,Stimuli/MEG_Stimuli/intermediate/In01.png,Stimuli/MEG_Stimuli/intermediate/In02.png,,,50,,,1,,,,,,,,,0.6,0.8,2,2,Stimuli/MEG_Stimuli/intermediate/In01.png,0,TRUE,3,4
,evan-display-text,159,721610,0.0-159.0,You'll now play the MARBLES slot machine.,"For each game, press 1 to play the machine.",Please pay attention! There will be checks.,2606.675,TRAIN INFO,,,,,,,,,,,,,,,,,,,,,,,,,,,,,,,,
,evan-run-trial,160,724622,0.0-160.0,,,,758.8249999,TRAIN OBSERVE,2,4,FALSE,0,10,10,10,Stimuli/MEG_Stimuli/intermediate/In01.png,Stimuli/MEG_Stimuli/intermediate/In02.png,Stimuli/MEG_Stimuli/intermediate/In03.png,Stimuli/MEG_Stimuli/intermediate/In05.png,49,1,,2,10,2,,,,,,,,,,,,,,,
,evan-run-trial,161,727259,0.0-161.0,,,,386.2299998,TRAIN OBSERVE,2,4,FALSE,0,10,10,10,Stimuli/MEG_Stimuli/intermediate/In01.png,Stimuli/MEG_Stimuli/intermediate/In02.png,Stimuli/MEG_Stimuli/intermediate/In03.png,Stimuli/MEG_Stimuli/intermediate/In05.png,49,1,,2,10,2,,,,,,,,,,,,,,,
,evan-run-trial,162,729861,0.0-162.0,,,,372.6499998,TRAIN OBSERVE,2,4,FALSE,1,10,10,10,Stimuli/MEG_Stimuli/intermediate/In01.png,Stimuli/MEG_Stimuli/intermediate/In02.png,Stimuli/MEG_Stimuli/intermediate/In03.png,Stimuli/MEG_Stimuli/intermediate/In05.png,49,1,,1,10,2,,,,,,,,,,,,,,,
,evan-run-trial,163,733530,0.0-163.0,,,,1420.165,TRAIN OBSERVE,2,4,FALSE,0,10,10,10,Stimuli/MEG_Stimuli/intermediate/In01.png,Stimuli/MEG_Stimuli/intermediate/In02.png,Stimuli/MEG_Stimuli/intermediate/In03.png,Stimuli/MEG_Stimuli/intermediate/In05.png,49,1,,2,10,2,,,,,,,,,,,,,,,
,evan-run-trial,164,736165,0.0-164.0,,,,407.3950001,TRAIN OBSERVE,2,4,FALSE,1,10,10,10,Stimuli/MEG_Stimuli/intermediate/In01.png,Stimuli/MEG_Stimuli/intermediate/In02.png,Stimuli/MEG_Stimuli/intermediate/In03.png,Stimuli/MEG_Stimuli/intermediate/In05.png,49,1,,1,10,2,,,,,,,,,,,,,,,
,evan-run-trial,165,738718,0.0-165.0,,,,299.8449998,TRAIN OBSERVE,2,4,FALSE,0,10,10,10,Stimuli/MEG_Stimuli/intermediate/In01.png,Stimuli/MEG_Stimuli/intermediate/In02.png,Stimuli/MEG_Stimuli/intermediate/In03.png,Stimuli/MEG_Stimuli/intermediate/In05.png,49,1,,2,10,2,,,,,,,,,,,,,,,
,evan-run-trial,166,741270,0.0-166.0,,,,322.745,TRAIN OBSERVE,2,4,FALSE,0,10,10,10,Stimuli/MEG_Stimuli/intermediate/In01.png,Stimuli/MEG_Stimuli/intermediate/In02.png,Stimuli/MEG_Stimuli/intermediate/In03.png,Stimuli/MEG_Stimuli/intermediate/In05.png,49,1,,2,10,2,,,,,,,,,,,,,,,
,evan-info-quiz,167,743247,0.0-167.0,,,,1471.825,,,,,,,,,,,,,,,,,,,Stimuli/MEG_Stimuli/intermediate/In02.png,SCISSORS,TRUE,TRUE,1,49,,,,,,,,,
,evan-run-trial,168,745774,0.0-168.0,,,,272.56,TRAIN OBSERVE,2,4,FALSE,1,10,10,10,Stimuli/MEG_Stimuli/intermediate/In01.png,Stimuli/MEG_Stimuli/intermediate/In02.png,Stimuli/MEG_Stimuli/intermediate/In03.png,Stimuli/MEG_Stimuli/intermediate/In05.png,49,1,,1,10,2,,,,,,,,,,,,,,,
,evan-run-trial,169,748427,0.0-169.0,,,,402.675,TRAIN OBSERVE,2,4,FALSE,1,10,10,10,Stimuli/MEG_Stimuli/intermediate/In01.png,Stimuli/MEG_Stimuli/intermediate/In02.png,Stimuli/MEG_Stimuli/intermediate/In03.png,Stimuli/MEG_Stimuli/intermediate/In05.png,49,1,,1,10,2,,,,,,,,,,,,,,,
,evan-run-trial,170,751228,0.0-170.0,,,,549.9900002,TRAIN OBSERVE,2,4,FALSE,0,10,10,10,Stimuli/MEG_Stimuli/intermediate/In01.png,Stimuli/MEG_Stimuli/intermediate/In02.png,Stimuli/MEG_Stimuli/intermediate/In03.png,Stimuli/MEG_Stimuli/intermediate/In05.png,49,1,,2,10,2,,,,,,,,,,,,,,,
,evan-display-text,171,769498,0.0-171.0,You'll now play the ZEBRA slot machine.,"For each game, press 1 to play the machine.",Please pay attention! There will be checks.,18268.14,TRAIN INFO,,,,,,,,,,,,,,,,,,,,,,,,,,,,,,,,
,evan-run-trial,172,772180,0.0-172.0,,,,439.1650003,TRAIN OBSERVE,2,4,FALSE,1,10,10,10,Stimuli/MEG_Stimuli/intermediate/In01.png,Stimuli/MEG_Stimuli/intermediate/In02.png,Stimuli/MEG_Stimuli/intermediate/In03.png,Stimuli/MEG_Stimuli/intermediate/In07.png,49,1,,1,10,4,,,,,,,,,,,,,,,
,evan-run-trial,173,774749,0.0-173.0,,,,316.565,TRAIN OBSERVE,2,4,FALSE,1,10,10,10,Stimuli/MEG_Stimuli/intermediate/In01.png,Stimuli/MEG_Stimuli/intermediate/In02.png,Stimuli/MEG_Stimuli/intermediate/In03.png,Stimuli/MEG_Stimuli/intermediate/In07.png,49,1,,1,10,4,,,,,,,,,,,,,,,
,evan-run-trial,174,777285,0.0-174.0,,,,306.3050001,TRAIN OBSERVE,2,4,FALSE,0,10,10,10,Stimuli/MEG_Stimuli/intermediate/In01.png,Stimuli/MEG_Stimuli/intermediate/In02.png,Stimuli/MEG_Stimuli/intermediate/In03.png,Stimuli/MEG_Stimuli/intermediate/In07.png,49,1,,2,10,4,,,,,,,,,,,,,,,
,evan-run-trial,175,779786,0.0-175.0,,,,251.7949999,TRAIN OBSERVE,2,4,FALSE,1,10,10,10,Stimuli/MEG_Stimuli/intermediate/In01.png,Stimuli/MEG_Stimuli/intermediate/In02.png,Stimuli/MEG_Stimuli/intermediate/In03.png,Stimuli/MEG_Stimuli/intermediate/In07.png,49,1,,1,10,4,,,,,,,,,,,,,,,
,evan-run-trial,176,782222,0.0-176.0,,,,199.0499999,TRAIN OBSERVE,2,4,FALSE,1,10,10,10,Stimuli/MEG_Stimuli/intermediate/In01.png,Stimuli/MEG_Stimuli/intermediate/In02.png,Stimuli/MEG_Stimuli/intermediate/In03.png,Stimuli/MEG_Stimuli/intermediate/In07.png,49,1,,1,10,4,,,,,,,,,,,,,,,
,evan-info-quiz,177,783487,0.0-177.0,,,,759.7049996,,,,,,,,,,,,,,,,,,,Stimuli/MEG_Stimuli/intermediate/In07.png,ZEBRA,TRUE,FALSE,1,50,,,,,,,,,
,evan-run-trial,178,786024,0.0-178.0,,,,288.9749999,TRAIN OBSERVE,2,4,FALSE,1,10,10,10,Stimuli/MEG_Stimuli/intermediate/In01.png,Stimuli/MEG_Stimuli/intermediate/In02.png,Stimuli/MEG_Stimuli/intermediate/In03.png,Stimuli/MEG_Stimuli/intermediate/In07.png,49,1,,1,10,4,,,,,,,,,,,,,,,
,evan-info-quiz,179,787215,0.0-179.0,,,,685.6200001,,,,,,,,,,,,,,,,,,,Stimuli/MEG_Stimuli/intermediate/In07.png,ZEBRA,TRUE,FALSE,1,50,,,,,,,,,
,evan-run-trial,180,789761,0.0-180.0,,,,289.1600002,TRAIN OBSERVE,2,4,FALSE,0,10,10,10,Stimuli/MEG_Stimuli/intermediate/In01.png,Stimuli/MEG_Stimuli/intermediate/In02.png,Stimuli/MEG_Stimuli/intermediate/In03.png,Stimuli/MEG_Stimuli/intermediate/In07.png,49,1,,2,10,4,,,,,,,,,,,,,,,
,evan-run-trial,181,792196,0.0-181.0,,,,190.035,TRAIN OBSERVE,2,4,FALSE,1,10,10,10,Stimuli/MEG_Stimuli/intermediate/In01.png,Stimuli/MEG_Stimuli/intermediate/In02.png,Stimuli/MEG_Stimuli/intermediate/In03.png,Stimuli/MEG_Stimuli/intermediate/In07.png,49,1,,1,10,4,,,,,,,,,,,,,,,
,evan-run-trial,182,794766,0.0-182.0,,,,316.6300002,TRAIN OBSERVE,2,4,FALSE,1,10,10,10,Stimuli/MEG_Stimuli/intermediate/In01.png,Stimuli/MEG_Stimuli/intermediate/In02.png,Stimuli/MEG_Stimuli/intermediate/In03.png,Stimuli/MEG_Stimuli/intermediate/In07.png,49,1,,1,10,4,,,,,,,,,,,,,,,
,evan-run-trial,183,797218,0.0-183.0,,,,210.7099998,TRAIN OBSERVE,2,4,FALSE,1,10,10,10,Stimuli/MEG_Stimuli/intermediate/In01.png,Stimuli/MEG_Stimuli/intermediate/In02.png,Stimuli/MEG_Stimuli/intermediate/In03.png,Stimuli/MEG_Stimuli/intermediate/In07.png,49,1,,1,10,4,,,,,,,,,,,,,,,
,evan-display-text,184,799162,0.0-184.0,You'll now make some choices between the MARBLES and the ZEBRA machines to earn points!,Press 1 to select the LEFT machine and 2 to select the RIGHT machine.,"Before each choice, you'll be shown the number of points for each banknote. Pay attention!",1942.165,TRAIN INFO,,,,,,,,,,,,,,,,,,,,,,,,,,,,,,,,
,evan-two-stim-choice,185,806860,0.0-185.0,,,,770.2700002,TRAIN CHOICE,1,4,,,,0,-10,Stimuli/MEG_Stimuli/intermediate/In01.png,Stimuli/MEG_Stimuli/intermediate/In02.png,,,50,,,2,,,,,,,,,0.4,0.8,2,2,Stimuli/MEG_Stimuli/intermediate/In02.png,-10,TRUE,2,4
,evan-two-stim-choice,186,814316,0.0-186.0,,,,551.5950001,TRAIN CHOICE,1,4,,,,10,0,Stimuli/MEG_Stimuli/intermediate/In01.png,Stimuli/MEG_Stimuli/intermediate/In02.png,,,49,,,1,,,,,,,,,0.4,0.8,1,2,Stimuli/MEG_Stimuli/intermediate/In01.png,10,TRUE,2,4
,evan-two-stim-choice,187,823089,0.0-187.0,,,,1864.265,TRAIN CHOICE,1,4,,,,0,10,Stimuli/MEG_Stimuli/intermediate/In01.png,Stimuli/MEG_Stimuli/intermediate/In02.png,,,50,,,2,,,,,,,,,0.4,0.8,2,1,Stimuli/MEG_Stimuli/intermediate/In02.png,10,TRUE,2,4
,evan-two-stim-choice,188,832614,0.0-188.0,,,,2625.41,TRAIN CHOICE,1,4,,,,0,-10,Stimuli/MEG_Stimuli/intermediate/In01.png,Stimuli/MEG_Stimuli/intermediate/In02.png,,,50,,,1,,,,,,,,,0.4,0.8,2,2,Stimuli/MEG_Stimuli/intermediate/In01.png,0,TRUE,2,4
,evan-two-stim-choice,189,840205,0.0-189.0,,,,668.85,TRAIN CHOICE,1,4,,,,10,0,Stimuli/MEG_Stimuli/intermediate/In01.png,Stimuli/MEG_Stimuli/intermediate/In02.png,,,50,,,1,,,,,,,,,0.4,0.8,2,2,Stimuli/MEG_Stimuli/intermediate/In01.png,10,TRUE,2,4
,evan-two-stim-choice,190,848061,0.0-190.0,,,,951.1549999,TRAIN CHOICE,1,4,,,,-10,0,Stimuli/MEG_Stimuli/intermediate/In01.png,Stimuli/MEG_Stimuli/intermediate/In02.png,,,49,,,1,,,,,,,,,0.4,0.8,1,1,Stimuli/MEG_Stimuli/intermediate/In01.png,-10,TRUE,2,4
,evan-two-stim-choice,191,855568,0.0-191.0,,,,582.4250001,TRAIN CHOICE,1,4,,,,0,10,Stimuli/MEG_Stimuli/intermediate/In01.png,Stimuli/MEG_Stimuli/intermediate/In02.png,,,49,,,2,,,,,,,,,0.4,0.8,1,1,Stimuli/MEG_Stimuli/intermediate/In02.png,10,TRUE,2,4
,evan-two-stim-choice,192,862990,0.0-192.0,,,,484.9100001,TRAIN CHOICE,1,4,,,,0,-10,Stimuli/MEG_Stimuli/intermediate/In01.png,Stimuli/MEG_Stimuli/intermediate/In02.png,,,50,,,1,,,,,,,,,0.4,0.8,2,2,Stimuli/MEG_Stimuli/intermediate/In01.png,0,TRUE,2,4
,evan-two-stim-choice,193,870495,0.0-193.0,,,,597.145,TRAIN CHOICE,1,4,,,,-10,0,Stimuli/MEG_Stimuli/intermediate/In01.png,Stimuli/MEG_Stimuli/intermediate/In02.png,,,50,,,2,,,,,,,,,0.4,0.8,2,1,Stimuli/MEG_Stimuli/intermediate/In02.png,0,TRUE,2,4
,evan-two-stim-choice,194,878170,0.0-194.0,,,,739.8600001,TRAIN CHOICE,1,4,,,,0,10,Stimuli/MEG_Stimuli/intermediate/In01.png,Stimuli/MEG_Stimuli/intermediate/In02.png,,,49,,,2,,,,,,,,,0.4,0.8,1,1,Stimuli/MEG_Stimuli/intermediate/In02.png,10,TRUE,2,4
,evan-two-stim-choice,195,886177,0.0-195.0,,,,1098.445,TRAIN CHOICE,1,4,,,,10,0,Stimuli/MEG_Stimuli/intermediate/In01.png,Stimuli/MEG_Stimuli/intermediate/In02.png,,,49,,,1,,,,,,,,,0.4,0.8,1,2,Stimuli/MEG_Stimuli/intermediate/In01.png,10,TRUE,2,4
,evan-two-stim-choice,196,894000,0.0-196.0,,,,898.2950002,TRAIN CHOICE,1,4,,,,-10,0,Stimuli/MEG_Stimuli/intermediate/In01.png,Stimuli/MEG_Stimuli/intermediate/In02.png,,,50,,,1,,,,,,,,,0.4,0.8,2,1,Stimuli/MEG_Stimuli/intermediate/In01.png,-10,TRUE,2,4
,evan-display-text,197,902217,0.0-197.0,You'll now play the BARRELL slot machine.,"For each game, press 1 to play the machine.",Please pay attention! There will be checks.,8215.67,TRAIN INFO,,,,,,,,,,,,,,,,,,,,,,,,,,,,,,,,
,evan-run-trial,198,904809,0.0-198.0,,,,343.785,TRAIN OBSERVE,2,4,FALSE,1,10,10,10,Stimuli/MEG_Stimuli/intermediate/In01.png,Stimuli/MEG_Stimuli/intermediate/In02.png,Stimuli/MEG_Stimuli/intermediate/In03.png,Stimuli/MEG_Stimuli/intermediate/In06.png,49,1,,1,10,3,,,,,,,,,,,,,,,
,evan-info-quiz,199,906191,0.0-199.0,,,,877.7300003,,,,,,,,,,,,,,,,,,,Stimuli/MEG_Stimuli/intermediate/In01.png,WALLET,TRUE,TRUE,1,49,,,,,,,,,
,evan-run-trial,200,908745,0.0-200.0,,,,304.7850002,TRAIN OBSERVE,2,4,FALSE,1,10,10,10,Stimuli/MEG_Stimuli/intermediate/In01.png,Stimuli/MEG_Stimuli/intermediate/In02.png,Stimuli/MEG_Stimuli/intermediate/In03.png,Stimuli/MEG_Stimuli/intermediate/In06.png,49,1,,1,10,3,,,,,,,,,,,,,,,
,evan-info-quiz,201,910254,0.0-201.0,,,,1004.94,,,,,,,,,,,,,,,,,,,Stimuli/MEG_Stimuli/intermediate/In01.png,WALLET,TRUE,TRUE,1,51,,,,,,,,,
,evan-run-trial,202,912749,0.0-202.0,,,,258.7199998,TRAIN OBSERVE,2,4,FALSE,0,10,10,10,Stimuli/MEG_Stimuli/intermediate/In01.png,Stimuli/MEG_Stimuli/intermediate/In02.png,Stimuli/MEG_Stimuli/intermediate/In03.png,Stimuli/MEG_Stimuli/intermediate/In06.png,49,1,,2,10,3,,,,,,,,,,,,,,,
,evan-run-trial,203,915418,0.0-203.0,,,,419.1349996,TRAIN OBSERVE,2,4,FALSE,1,10,10,10,Stimuli/MEG_Stimuli/intermediate/In01.png,Stimuli/MEG_Stimuli/intermediate/In02.png,Stimuli/MEG_Stimuli/intermediate/In03.png,Stimuli/MEG_Stimuli/intermediate/In06.png,49,1,,1,10,3,,,,,,,,,,,,,,,
,evan-run-trial,204,917903,0.0-204.0,,,,246.2650002,TRAIN OBSERVE,2,4,FALSE,0,10,10,10,Stimuli/MEG_Stimuli/intermediate/In01.png,Stimuli/MEG_Stimuli/intermediate/In02.png,Stimuli/MEG_Stimuli/intermediate/In03.png,Stimuli/MEG_Stimuli/intermediate/In06.png,49,1,,2,10,3,,,,,,,,,,,,,,,
,evan-run-trial,205,920455,0.0-205.0,,,,305.315,TRAIN OBSERVE,2,4,FALSE,0,10,10,10,Stimuli/MEG_Stimuli/intermediate/In01.png,Stimuli/MEG_Stimuli/intermediate/In02.png,Stimuli/MEG_Stimuli/intermediate/In03.png,Stimuli/MEG_Stimuli/intermediate/In06.png,49,1,,2,10,3,,,,,,,,,,,,,,,
,evan-run-trial,206,923092,0.0-206.0,,,,392.8450001,TRAIN OBSERVE,2,4,FALSE,1,10,10,10,Stimuli/MEG_Stimuli/intermediate/In01.png,Stimuli/MEG_Stimuli/intermediate/In02.png,Stimuli/MEG_Stimuli/intermediate/In03.png,Stimuli/MEG_Stimuli/intermediate/In06.png,49,1,,1,10,3,,,,,,,,,,,,,,,
,evan-run-trial,207,925777,0.0-207.0,,,,445.1100002,TRAIN OBSERVE,2,4,FALSE,1,10,10,10,Stimuli/MEG_Stimuli/intermediate/In01.png,Stimuli/MEG_Stimuli/intermediate/In02.png,Stimuli/MEG_Stimuli/intermediate/In03.png,Stimuli/MEG_Stimuli/intermediate/In06.png,49,1,,1,10,3,,,,,,,,,,,,,,,
,evan-run-trial,208,928363,0.0-208.0,,,,367.36,TRAIN OBSERVE,2,4,FALSE,0,10,10,10,Stimuli/MEG_Stimuli/intermediate/In01.png,Stimuli/MEG_Stimuli/intermediate/In02.png,Stimuli/MEG_Stimuli/intermediate/In03.png,Stimuli/MEG_Stimuli/intermediate/In06.png,49,1,,2,10,3,,,,,,,,,,,,,,,
,evan-run-trial,209,930897,0.0-209.0,,,,276.8199998,TRAIN OBSERVE,2,4,FALSE,1,10,10,10,Stimuli/MEG_Stimuli/intermediate/In01.png,Stimuli/MEG_Stimuli/intermediate/In02.png,Stimuli/MEG_Stimuli/intermediate/In03.png,Stimuli/MEG_Stimuli/intermediate/In06.png,49,1,,1,10,3,,,,,,,,,,,,,,,
,evan-display-text,210,932474,0.0-210.0,You'll now play the KEY slot machine.,"For each game, press 1 to play the machine.",Please pay attention! There will be checks.,1574.82,TRAIN INFO,,,,,,,,,,,,,,,,,,,,,,,,,,,,,,,,
,evan-run-trial,211,935019,0.0-211.0,,,,293.935,TRAIN OBSERVE,2,4,FALSE,1,10,10,10,Stimuli/MEG_Stimuli/intermediate/In01.png,Stimuli/MEG_Stimuli/intermediate/In02.png,Stimuli/MEG_Stimuli/intermediate/In03.png,Stimuli/MEG_Stimuli/intermediate/In04.png,49,1,,1,10,1,,,,,,,,,,,,,,,
,evan-run-trial,212,937421,0.0-212.0,,,,165.3849999,TRAIN OBSERVE,2,4,FALSE,0,10,10,10,Stimuli/MEG_Stimuli/intermediate/In01.png,Stimuli/MEG_Stimuli/intermediate/In02.png,Stimuli/MEG_Stimuli/intermediate/In03.png,Stimuli/MEG_Stimuli/intermediate/In04.png,49,1,,2,10,1,,,,,,,,,,,,,,,
,evan-run-trial,213,939889,0.0-213.0,,,,242.7699999,TRAIN OBSERVE,2,4,FALSE,0,10,10,10,Stimuli/MEG_Stimuli/intermediate/In01.png,Stimuli/MEG_Stimuli/intermediate/In02.png,Stimuli/MEG_Stimuli/intermediate/In03.png,Stimuli/MEG_Stimuli/intermediate/In04.png,49,1,,2,10,1,,,,,,,,,,,,,,,
,evan-run-trial,214,942359,0.0-214.0,,,,239.0799997,TRAIN OBSERVE,2,4,FALSE,1,10,10,10,Stimuli/MEG_Stimuli/intermediate/In01.png,Stimuli/MEG_Stimuli/intermediate/In02.png,Stimuli/MEG_Stimuli/intermediate/In03.png,Stimuli/MEG_Stimuli/intermediate/In04.png,49,1,,1,10,1,,,,,,,,,,,,,,,
,evan-run-trial,215,944826,0.0-215.0,,,,233.8999999,TRAIN OBSERVE,2,4,FALSE,0,10,10,10,Stimuli/MEG_Stimuli/intermediate/In01.png,Stimuli/MEG_Stimuli/intermediate/In02.png,Stimuli/MEG_Stimuli/intermediate/In03.png,Stimuli/MEG_Stimuli/intermediate/In04.png,49,1,,2,10,1,,,,,,,,,,,,,,,
,evan-run-trial,216,947329,0.0-216.0,,,,262.815,TRAIN OBSERVE,2,4,FALSE,0,10,10,10,Stimuli/MEG_Stimuli/intermediate/In01.png,Stimuli/MEG_Stimuli/intermediate/In02.png,Stimuli/MEG_Stimuli/intermediate/In03.png,Stimuli/MEG_Stimuli/intermediate/In04.png,49,1,,2,10,1,,,,,,,,,,,,,,,
,evan-run-trial,217,949864,0.0-217.0,,,,287.5899998,TRAIN OBSERVE,2,4,FALSE,0,10,10,10,Stimuli/MEG_Stimuli/intermediate/In01.png,Stimuli/MEG_Stimuli/intermediate/In02.png,Stimuli/MEG_Stimuli/intermediate/In03.png,Stimuli/MEG_Stimuli/intermediate/In04.png,49,1,,2,10,1,,,,,,,,,,,,,,,
,evan-run-trial,218,952183,0.0-218.0,,,,87.36999985,TRAIN OBSERVE,2,4,FALSE,0,10,10,10,Stimuli/MEG_Stimuli/intermediate/In01.png,Stimuli/MEG_Stimuli/intermediate/In02.png,Stimuli/MEG_Stimuli/intermediate/In03.png,Stimuli/MEG_Stimuli/intermediate/In04.png,49,1,,2,10,1,,,,,,,,,,,,,,,
,evan-run-trial,219,954702,0.0-219.0,,,,265.7199996,TRAIN OBSERVE,2,4,FALSE,0,10,10,10,Stimuli/MEG_Stimuli/intermediate/In01.png,Stimuli/MEG_Stimuli/intermediate/In02.png,Stimuli/MEG_Stimuli/intermediate/In03.png,Stimuli/MEG_Stimuli/intermediate/In04.png,49,1,,2,10,1,,,,,,,,,,,,,,,
,evan-info-quiz,220,956270,0.0-220.0,,,,1064.32,,,,,,,,,,,,,,,,,,,Stimuli/MEG_Stimuli/intermediate/In04.png,KEY,FALSE,FALSE,1,50,,,,,,,,,
,evan-run-trial,221,958788,0.0-221.0,,,,274.2400002,TRAIN OBSERVE,2,4,FALSE,0,10,10,10,Stimuli/MEG_Stimuli/intermediate/In01.png,Stimuli/MEG_Stimuli/intermediate/In02.png,Stimuli/MEG_Stimuli/intermediate/In03.png,Stimuli/MEG_Stimuli/intermediate/In04.png,49,1,,2,10,1,,,,,,,,,,,,,,,
,evan-display-text,222,959802,0.0-222.0,You'll now make some choices between the KEY and the BARRELL machines to earn points!,Press 1 to select the LEFT machine and 2 to select the RIGHT machine.,"Before each choice, you'll be shown the number of points for each banknote. Pay attention!",1012.125,TRAIN INFO,,,,,,,,,,,,,,,,,,,,,,,,,,,,,,,,
,evan-two-stim-choice,223,968331,0.0-223.0,,,,1638.11,TRAIN CHOICE,1,4,,,,10,0,Stimuli/MEG_Stimuli/intermediate/In01.png,Stimuli/MEG_Stimuli/intermediate/In02.png,,,50,,,1,,,,,,,,,0.2,0.6,2,2,Stimuli/MEG_Stimuli/intermediate/In01.png,10,TRUE,1,3
,evan-two-stim-choice,224,976920,0.0-224.0,,,,1657.19,TRAIN CHOICE,1,4,,,,0,-10,Stimuli/MEG_Stimuli/intermediate/In01.png,Stimuli/MEG_Stimuli/intermediate/In02.png,,,50,,,1,,,,,,,,,0.2,0.6,2,2,Stimuli/MEG_Stimuli/intermediate/In01.png,0,TRUE,1,3
,evan-two-stim-choice,225,985978,0.0-225.0,,,,2138.975,TRAIN CHOICE,1,4,,,,0,-10,Stimuli/MEG_Stimuli/intermediate/In01.png,Stimuli/MEG_Stimuli/intermediate/In02.png,,,50,,,1,,,,,,,,,0.2,0.6,2,2,Stimuli/MEG_Stimuli/intermediate/In01.png,0,TRUE,1,3
,evan-two-stim-choice,226,993402,0.0-226.0,,,,519.5999998,TRAIN CHOICE,1,4,,,,0,10,Stimuli/MEG_Stimuli/intermediate/In01.png,Stimuli/MEG_Stimuli/intermediate/In02.png,,,50,,,1,,,,,,,,,0.2,0.6,2,1,Stimuli/MEG_Stimuli/intermediate/In01.png,0,TRUE,1,3
,evan-two-stim-choice,227,1000775,0.0-227.0,,,,473.6699997,TRAIN CHOICE,1,4,,,,-10,0,Stimuli/MEG_Stimuli/intermediate/In01.png,Stimuli/MEG_Stimuli/intermediate/In02.png,,,50,,,2,,,,,,,,,0.2,0.6,2,1,Stimuli/MEG_Stimuli/intermediate/In02.png,0,TRUE,1,3
,evan-two-stim-choice,228,1008448,0.0-228.0,,,,732.27,TRAIN CHOICE,1,4,,,,-10,0,Stimuli/MEG_Stimuli/intermediate/In01.png,Stimuli/MEG_Stimuli/intermediate/In02.png,,,50,,,1,,,,,,,,,0.2,0.6,2,1,Stimuli/MEG_Stimuli/intermediate/In01.png,-10,TRUE,1,3
,evan-two-stim-choice,229,1015871,0.0-229.0,,,,531.2800002,TRAIN CHOICE,1,4,,,,-10,0,Stimuli/MEG_Stimuli/intermediate/In01.png,Stimuli/MEG_Stimuli/intermediate/In02.png,,,49,,,1,,,,,,,,,0.2,0.6,1,1,Stimuli/MEG_Stimuli/intermediate/In01.png,-10,TRUE,1,3
,evan-two-stim-choice,230,1023260,0.0-230.0,,,,467.6950001,TRAIN CHOICE,1,4,,,,0,-10,Stimuli/MEG_Stimuli/intermediate/In01.png,Stimuli/MEG_Stimuli/intermediate/In02.png,,,50,,,2,,,,,,,,,0.2,0.6,2,1,Stimuli/MEG_Stimuli/intermediate/In02.png,-10,FALSE,1,3
,evan-two-stim-choice,231,1030916,0.0-231.0,,,,758.87,TRAIN CHOICE,1,4,,,,0,10,Stimuli/MEG_Stimuli/intermediate/In01.png,Stimuli/MEG_Stimuli/intermediate/In02.png,,,49,,,2,,,,,,,,,0.2,0.6,1,1,Stimuli/MEG_Stimuli/intermediate/In02.png,10,TRUE,1,3
,evan-two-stim-choice,232,1039890,0.0-232.0,,,,2080.195,TRAIN CHOICE,1,4,,,,10,0,Stimuli/MEG_Stimuli/intermediate/In01.png,Stimuli/MEG_Stimuli/intermediate/In02.png,,,49,,,1,,,,,,,,,0.2,0.6,1,2,Stimuli/MEG_Stimuli/intermediate/In01.png,10,TRUE,1,3
,evan-two-stim-choice,233,1047347,0.0-233.0,,,,545.1799999,TRAIN CHOICE,1,4,,,,0,10,Stimuli/MEG_Stimuli/intermediate/In01.png,Stimuli/MEG_Stimuli/intermediate/In02.png,,,49,,,2,,,,,,,,,0.2,0.6,1,1,Stimuli/MEG_Stimuli/intermediate/In02.png,10,TRUE,1,3
,evan-two-stim-choice,234,1055103,0.0-234.0,,,,833.505,TRAIN CHOICE,1,4,,,,10,0,Stimuli/MEG_Stimuli/intermediate/In01.png,Stimuli/MEG_Stimuli/intermediate/In02.png,,,49,,,1,,,,,,,,,0.2,0.6,1,2,Stimuli/MEG_Stimuli/intermediate/In01.png,10,TRUE,1,3
,evan-display-text,235,1067689,0.0-235.0,You'll now play the KEY slot machine.,"For each game, press 1 to play the machine.",Please pay attention! There will be checks.,12584.63,TRAIN INFO,,,,,,,,,,,,,,,,,,,,,,,,,,,,,,,,
,evan-run-trial,236,1070333,0.0-236.0,,,,407.1300002,TRAIN OBSERVE,2,4,FALSE,1,10,10,10,Stimuli/MEG_Stimuli/intermediate/In01.png,Stimuli/MEG_Stimuli/intermediate/In02.png,Stimuli/MEG_Stimuli/intermediate/In03.png,Stimuli/MEG_Stimuli/intermediate/In04.png,49,1,,1,10,1,,,,,,,,,,,,,,,
,evan-run-trial,237,1072818,0.0-237.0,,,,242.1900001,TRAIN OBSERVE,2,4,FALSE,0,10,10,10,Stimuli/MEG_Stimuli/intermediate/In01.png,Stimuli/MEG_Stimuli/intermediate/In02.png,Stimuli/MEG_Stimuli/intermediate/In03.png,Stimuli/MEG_Stimuli/intermediate/In04.png,49,1,,2,10,1,,,,,,,,,,,,,,,
,evan-info-quiz,238,1074462,0.0-238.0,,,,1139.085,,,,,,,,,,,,,,,,,,,Stimuli/MEG_Stimuli/intermediate/In04.png,KEY,TRUE,FALSE,1,49,,,,,,,,,
,evan-run-trial,239,1076921,0.0-239.0,,,,226.4549998,TRAIN OBSERVE,2,4,FALSE,0,10,10,10,Stimuli/MEG_Stimuli/intermediate/In01.png,Stimuli/MEG_Stimuli/intermediate/In02.png,Stimuli/MEG_Stimuli/intermediate/In03.png,Stimuli/MEG_Stimuli/intermediate/In04.png,49,1,,2,10,1,,,,,,,,,,,,,,,
,evan-run-trial,240,1079440,0.0-240.0,,,,295.2149999,TRAIN OBSERVE,2,4,FALSE,0,10,10,10,Stimuli/MEG_Stimuli/intermediate/In01.png,Stimuli/MEG_Stimuli/intermediate/In02.png,Stimuli/MEG_Stimuli/intermediate/In03.png,Stimuli/MEG_Stimuli/intermediate/In04.png,49,1,,2,10,1,,,,,,,,,,,,,,,
,evan-run-trial,241,1081893,0.0-241.0,,,,223.5650001,TRAIN OBSERVE,2,4,FALSE,0,10,10,10,Stimuli/MEG_Stimuli/intermediate/In01.png,Stimuli/MEG_Stimuli/intermediate/In02.png,Stimuli/MEG_Stimuli/intermediate/In03.png,Stimuli/MEG_Stimuli/intermediate/In04.png,49,1,,2,10,1,,,,,,,,,,,,,,,
,evan-info-quiz,242,1083359,0.0-242.0,,,,959.3549999,,,,,,,,,,,,,,,,,,,Stimuli/MEG_Stimuli/intermediate/In04.png,KEY,TRUE,FALSE,1,51,,,,,,,,,
,evan-run-trial,243,1085846,0.0-243.0,,,,256.2199999,TRAIN OBSERVE,2,4,FALSE,0,10,10,10,Stimuli/MEG_Stimuli/intermediate/In01.png,Stimuli/MEG_Stimuli/intermediate/In02.png,Stimuli/MEG_Stimuli/intermediate/In03.png,Stimuli/MEG_Stimuli/intermediate/In04.png,49,1,,2,10,1,,,,,,,,,,,,,,,
,evan-run-trial,244,1088382,0.0-244.0,,,,282.875,TRAIN OBSERVE,2,4,FALSE,1,10,10,10,Stimuli/MEG_Stimuli/intermediate/In01.png,Stimuli/MEG_Stimuli/intermediate/In02.png,Stimuli/MEG_Stimuli/intermediate/In03.png,Stimuli/MEG_Stimuli/intermediate/In04.png,49,1,,1,10,1,,,,,,,,,,,,,,,
,evan-run-trial,245,1090850,0.0-245.0,,,,224.93,TRAIN OBSERVE,2,4,FALSE,0,10,10,10,Stimuli/MEG_Stimuli/intermediate/In01.png,Stimuli/MEG_Stimuli/intermediate/In02.png,Stimuli/MEG_Stimuli/intermediate/In03.png,Stimuli/MEG_Stimuli/intermediate/In04.png,49,1,,2,10,1,,,,,,,,,,,,,,,
,evan-run-trial,246,1093437,0.0-246.0,,,,349.9949998,TRAIN OBSERVE,2,4,FALSE,0,10,10,10,Stimuli/MEG_Stimuli/intermediate/In01.png,Stimuli/MEG_Stimuli/intermediate/In02.png,Stimuli/MEG_Stimuli/intermediate/In03.png,Stimuli/MEG_Stimuli/intermediate/In04.png,49,1,,2,10,1,,,,,,,,,,,,,,,
,evan-run-trial,247,1095921,0.0-247.0,,,,242.4149998,TRAIN OBSERVE,2,4,FALSE,0,10,10,10,Stimuli/MEG_Stimuli/intermediate/In01.png,Stimuli/MEG_Stimuli/intermediate/In02.png,Stimuli/MEG_Stimuli/intermediate/In03.png,Stimuli/MEG_Stimuli/intermediate/In04.png,49,1,,2,10,1,,,,,,,,,,,,,,,
,evan-display-text,248,1097657,0.0-248.0,You'll now play the ZEBRA slot machine.,"For each game, press 1 to play the machine.",Please pay attention! There will be checks.,1734.11,TRAIN INFO,,,,,,,,,,,,,,,,,,,,,,,,,,,,,,,,
,evan-run-trial,249,1100425,0.0-249.0,,,,518.985,TRAIN OBSERVE,2,4,FALSE,0,10,10,10,Stimuli/MEG_Stimuli/intermediate/In01.png,Stimuli/MEG_Stimuli/intermediate/In02.png,Stimuli/MEG_Stimuli/intermediate/In03.png,Stimuli/MEG_Stimuli/intermediate/In07.png,49,1,,2,10,4,,,,,,,,,,,,,,,
,evan-run-trial,250,1102827,0.0-250.0,,,,166.1749999,TRAIN OBSERVE,2,4,FALSE,1,10,10,10,Stimuli/MEG_Stimuli/intermediate/In01.png,Stimuli/MEG_Stimuli/intermediate/In02.png,Stimuli/MEG_Stimuli/intermediate/In03.png,Stimuli/MEG_Stimuli/intermediate/In07.png,49,1,,1,10,4,,,,,,,,,,,,,,,
,evan-info-quiz,251,1103982,0.0-251.0,,,,651.0749999,,,,,,,,,,,,,,,,,,,Stimuli/MEG_Stimuli/intermediate/In01.png,WALLET,TRUE,TRUE,1,50,,,,,,,,,
,evan-run-trial,252,1106547,0.0-252.0,,,,337.1899999,TRAIN OBSERVE,2,4,FALSE,1,10,10,10,Stimuli/MEG_Stimuli/intermediate/In01.png,Stimuli/MEG_Stimuli/intermediate/In02.png,Stimuli/MEG_Stimuli/intermediate/In03.png,Stimuli/MEG_Stimuli/intermediate/In07.png,49,1,,1,10,4,,,,,,,,,,,,,,,
,evan-run-trial,253,1108983,0.0-253.0,,,,205.1149998,TRAIN OBSERVE,2,4,FALSE,1,10,10,10,Stimuli/MEG_Stimuli/intermediate/In01.png,Stimuli/MEG_Stimuli/intermediate/In02.png,Stimuli/MEG_Stimuli/intermediate/In03.png,Stimuli/MEG_Stimuli/intermediate/In07.png,49,1,,1,10,4,,,,,,,,,,,,,,,
,evan-run-trial,254,1111418,0.0-254.0,,,,183.9450002,TRAIN OBSERVE,2,4,FALSE,1,10,10,10,Stimuli/MEG_Stimuli/intermediate/In01.png,Stimuli/MEG_Stimuli/intermediate/In02.png,Stimuli/MEG_Stimuli/intermediate/In03.png,Stimuli/MEG_Stimuli/intermediate/In07.png,49,1,,1,10,4,,,,,,,,,,,,,,,
,evan-run-trial,255,1113820,0.0-255.0,,,,167.1949998,TRAIN OBSERVE,2,4,FALSE,0,10,10,10,Stimuli/MEG_Stimuli/intermediate/In01.png,Stimuli/MEG_Stimuli/intermediate/In02.png,Stimuli/MEG_Stimuli/intermediate/In03.png,Stimuli/MEG_Stimuli/intermediate/In07.png,49,1,,2,10,4,,,,,,,,,,,,,,,
,evan-run-trial,256,1116289,0.0-256.0,,,,227.6749997,TRAIN OBSERVE,2,4,FALSE,1,10,10,10,Stimuli/MEG_Stimuli/intermediate/In01.png,Stimuli/MEG_Stimuli/intermediate/In02.png,Stimuli/MEG_Stimuli/intermediate/In03.png,Stimuli/MEG_Stimuli/intermediate/In07.png,49,1,,1,10,4,,,,,,,,,,,,,,,
,evan-run-trial,257,1118757,0.0-257.0,,,,222.9149998,TRAIN OBSERVE,2,4,FALSE,1,10,10,10,Stimuli/MEG_Stimuli/intermediate/In01.png,Stimuli/MEG_Stimuli/intermediate/In02.png,Stimuli/MEG_Stimuli/intermediate/In03.png,Stimuli/MEG_Stimuli/intermediate/In07.png,49,1,,1,10,4,,,,,,,,,,,,,,,
,evan-run-trial,258,1121209,0.0-258.0,,,,203.0400001,TRAIN OBSERVE,2,4,FALSE,1,10,10,10,Stimuli/MEG_Stimuli/intermediate/In01.png,Stimuli/MEG_Stimuli/intermediate/In02.png,Stimuli/MEG_Stimuli/intermediate/In03.png,Stimuli/MEG_Stimuli/intermediate/In07.png,49,1,,1,10,4,,,,,,,,,,,,,,,
,evan-run-trial,259,1123645,0.0-259.0,,,,199.2200003,TRAIN OBSERVE,2,4,FALSE,1,10,10,10,Stimuli/MEG_Stimuli/intermediate/In01.png,Stimuli/MEG_Stimuli/intermediate/In02.png,Stimuli/MEG_Stimuli/intermediate/In03.png,Stimuli/MEG_Stimuli/intermediate/In07.png,49,1,,1,10,4,,,,,,,,,,,,,,,
,evan-display-text,260,1125673,0.0-260.0,You'll now make some choices between the KEY and the ZEBRA machines to earn points!,Press 1 to select the LEFT machine and 2 to select the RIGHT machine.,"Before each choice, you'll be shown the number of points for each banknote. Pay attention!",2025.065,TRAIN INFO,,,,,,,,,,,,,,,,,,,,,,,,,,,,,,,,
,evan-two-stim-choice,261,1133287,0.0-261.0,,,,707.8300002,TRAIN CHOICE,1,4,,,,10,0,Stimuli/MEG_Stimuli/intermediate/In01.png,Stimuli/MEG_Stimuli/intermediate/In02.png,,,50,,,2,,,,,,,,,0.2,0.8,2,2,Stimuli/MEG_Stimuli/intermediate/In02.png,0,TRUE,1,4
,evan-two-stim-choice,262,1144563,0.0-262.0,,,,4363.51,TRAIN CHOICE,1,4,,,,10,0,Stimuli/MEG_Stimuli/intermediate/In01.png,Stimuli/MEG_Stimuli/intermediate/In02.png,,,50,,,1,,,,,,,,,0.2,0.8,2,2,Stimuli/MEG_Stimuli/intermediate/In01.png,10,TRUE,1,4
,evan-two-stim-choice,263,1152052,0.0-263.0,,,,577.145,TRAIN CHOICE,1,4,,,,0,10,Stimuli/MEG_Stimuli/intermediate/In01.png,Stimuli/MEG_Stimuli/intermediate/In02.png,,,49,,,2,,,,,,,,,0.2,0.8,1,1,Stimuli/MEG_Stimuli/intermediate/In02.png,10,TRUE,1,4
,evan-two-stim-choice,264,1164647,0.0-264.0,,,,5661.95,TRAIN CHOICE,1,4,,,,-10,0,Stimuli/MEG_Stimuli/intermediate/In01.png,Stimuli/MEG_Stimuli/intermediate/In02.png,,,50,,,2,,,,,,,,,0.2,0.8,2,2,Stimuli/MEG_Stimuli/intermediate/In02.png,0,FALSE,1,4
,evan-two-stim-choice,265,1173889,0.0-265.0,,,,2347.895,TRAIN CHOICE,1,4,,,,0,-10,Stimuli/MEG_Stimuli/intermediate/In01.png,Stimuli/MEG_Stimuli/intermediate/In02.png,,,49,,,1,,,,,,,,,0.2,0.8,1,2,Stimuli/MEG_Stimuli/intermediate/In01.png,0,TRUE,1,4
,evan-two-stim-choice,266,1182078,0.0-266.0,,,,1282.425,TRAIN CHOICE,1,4,,,,0,-10,Stimuli/MEG_Stimuli/intermediate/In01.png,Stimuli/MEG_Stimuli/intermediate/In02.png,,,50,,,1,,,,,,,,,0.2,0.8,2,2,Stimuli/MEG_Stimuli/intermediate/In01.png,0,TRUE,1,4
,evan-two-stim-choice,267,1190820,0.0-267.0,,,,1828.055,TRAIN CHOICE,1,4,,,,0,10,Stimuli/MEG_Stimuli/intermediate/In01.png,Stimuli/MEG_Stimuli/intermediate/In02.png,,,50,,,2,,,,,,,,,0.2,0.8,2,1,Stimuli/MEG_Stimuli/intermediate/In02.png,10,TRUE,1,4
,evan-two-stim-choice,268,1198309,0.0-268.0,,,,577.085,TRAIN CHOICE,1,4,,,,-10,0,Stimuli/MEG_Stimuli/intermediate/In01.png,Stimuli/MEG_Stimuli/intermediate/In02.png,,,49,,,2,,,,,,,,,0.2,0.8,1,1,Stimuli/MEG_Stimuli/intermediate/In02.png,0,TRUE,1,4
,evan-two-stim-choice,269,1205748,0.0-269.0,,,,527.4,TRAIN CHOICE,1,4,,,,10,0,Stimuli/MEG_Stimuli/intermediate/In01.png,Stimuli/MEG_Stimuli/intermediate/In02.png,,,50,,,2,,,,,,,,,0.2,0.8,2,2,Stimuli/MEG_Stimuli/intermediate/In02.png,0,TRUE,1,4
,evan-two-stim-choice,270,1216890,0.0-270.0,,,,4206.225,TRAIN CHOICE,1,4,,,,0,10,Stimuli/MEG_Stimuli/intermediate/In01.png,Stimuli/MEG_Stimuli/intermediate/In02.png,,,49,,,2,,,,,,,,,0.2,0.8,1,1,Stimuli/MEG_Stimuli/intermediate/In02.png,10,TRUE,1,4
,evan-two-stim-choice,271,1226883,0.0-271.0,,,,3079.735,TRAIN CHOICE,1,4,,,,-10,0,Stimuli/MEG_Stimuli/intermediate/In01.png,Stimuli/MEG_Stimuli/intermediate/In02.png,,,49,,,2,,,,,,,,,0.2,0.8,1,1,Stimuli/MEG_Stimuli/intermediate/In02.png,0,TRUE,1,4
,evan-two-stim-choice,272,1236024,0.0-272.0,,,,2239.885,TRAIN CHOICE,1,4,,,,0,-10,Stimuli/MEG_Stimuli/intermediate/In01.png,Stimuli/MEG_Stimuli/intermediate/In02.png,,,50,,,1,,,,,,,,,0.2,0.8,2,2,Stimuli/MEG_Stimuli/intermediate/In01.png,0,TRUE,1,4
,evan-display-text,273,1237481,0.0-273.0,You'll now play the ZEBRA slot machine.,"For each game, press 1 to play the machine.",Please pay attention! There will be checks.,1455.21,TRAIN INFO,,,,,,,,,,,,,,,,,,,,,,,,,,,,,,,,
,evan-run-trial,274,1240061,0.0-274.0,,,,324.6750003,TRAIN OBSERVE,2,4,FALSE,1,10,10,10,Stimuli/MEG_Stimuli/intermediate/In01.png,Stimuli/MEG_Stimuli/intermediate/In02.png,Stimuli/MEG_Stimuli/intermediate/In03.png,Stimuli/MEG_Stimuli/intermediate/In07.png,49,1,,1,10,4,,,,,,,,,,,,,,,
,evan-run-trial,275,1242546,0.0-275.0,,,,243.185,TRAIN OBSERVE,2,4,FALSE,1,10,10,10,Stimuli/MEG_Stimuli/intermediate/In01.png,Stimuli/MEG_Stimuli/intermediate/In02.png,Stimuli/MEG_Stimuli/intermediate/In03.png,Stimuli/MEG_Stimuli/intermediate/In07.png,49,1,,1,10,4,,,,,,,,,,,,,,,
,evan-run-trial,276,1245132,0.0-276.0,,,,333.3450002,TRAIN OBSERVE,2,4,FALSE,1,10,10,10,Stimuli/MEG_Stimuli/intermediate/In01.png,Stimuli/MEG_Stimuli/intermediate/In02.png,Stimuli/MEG_Stimuli/intermediate/In03.png,Stimuli/MEG_Stimuli/intermediate/In07.png,49,1,,1,10,4,,,,,,,,,,,,,,,
,evan-run-trial,277,1247634,0.0-277.0,,,,275.2800002,TRAIN OBSERVE,2,4,FALSE,1,10,10,10,Stimuli/MEG_Stimuli/intermediate/In01.png,Stimuli/MEG_Stimuli/intermediate/In02.png,Stimuli/MEG_Stimuli/intermediate/In03.png,Stimuli/MEG_Stimuli/intermediate/In07.png,49,1,,1,10,4,,,,,,,,,,,,,,,
,evan-run-trial,278,1250186,0.0-278.0,,,,302.8750001,TRAIN OBSERVE,2,4,FALSE,1,10,10,10,Stimuli/MEG_Stimuli/intermediate/In01.png,Stimuli/MEG_Stimuli/intermediate/In02.png,Stimuli/MEG_Stimuli/intermediate/In03.png,Stimuli/MEG_Stimuli/intermediate/In07.png,49,1,,1,10,4,,,,,,,,,,,,,,,
,evan-info-quiz,279,1251678,0.0-279.0,,,,987.925,,,,,,,,,,,,,,,,,,,Stimuli/MEG_Stimuli/intermediate/In07.png,ZEBRA,FALSE,FALSE,1,50,,,,,,,,,
,evan-run-trial,280,1254257,0.0-280.0,,,,322.015,TRAIN OBSERVE,2,4,FALSE,1,10,10,10,Stimuli/MEG_Stimuli/intermediate/In01.png,Stimuli/MEG_Stimuli/intermediate/In02.png,Stimuli/MEG_Stimuli/intermediate/In03.png,Stimuli/MEG_Stimuli/intermediate/In07.png,49,1,,1,10,4,,,,,,,,,,,,,,,
,evan-run-trial,281,1256740,0.0-281.0,,,,238.0650002,TRAIN OBSERVE,2,4,FALSE,0,10,10,10,Stimuli/MEG_Stimuli/intermediate/In01.png,Stimuli/MEG_Stimuli/intermediate/In02.png,Stimuli/MEG_Stimuli/intermediate/In03.png,Stimuli/MEG_Stimuli/intermediate/In07.png,49,1,,2,10,4,,,,,,,,,,,,,,,
,evan-run-trial,282,1259211,0.0-282.0,,,,235.2750003,TRAIN OBSERVE,2,4,FALSE,1,10,10,10,Stimuli/MEG_Stimuli/intermediate/In01.png,Stimuli/MEG_Stimuli/intermediate/In02.png,Stimuli/MEG_Stimuli/intermediate/In03.png,Stimuli/MEG_Stimuli/intermediate/In07.png,49,1,,1,10,4,,,,,,,,,,,,,,,
,evan-run-trial,283,1261730,0.0-283.0,,,,293.5200003,TRAIN OBSERVE,2,4,FALSE,1,10,10,10,Stimuli/MEG_Stimuli/intermediate/In01.png,Stimuli/MEG_Stimuli/intermediate/In02.png,Stimuli/MEG_Stimuli/intermediate/In03.png,Stimuli/MEG_Stimuli/intermediate/In07.png,49,1,,1,10,4,,,,,,,,,,,,,,,
,evan-info-quiz,284,1262766,0.0-284.0,,,,532.1650002,,,,,,,,,,,,,,,,,,,Stimuli/MEG_Stimuli/intermediate/In01.png,WALLET,TRUE,TRUE,1,50,,,,,,,,,
,evan-run-trial,285,1265248,0.0-285.0,,,,241.4100002,TRAIN OBSERVE,2,4,FALSE,0,10,10,10,Stimuli/MEG_Stimuli/intermediate/In01.png,Stimuli/MEG_Stimuli/intermediate/In02.png,Stimuli/MEG_Stimuli/intermediate/In03.png,Stimuli/MEG_Stimuli/intermediate/In07.png,49,1,,2,10,4,,,,,,,,,,,,,,,
,evan-display-text,286,1268153,0.0-286.0,You'll now play the BARRELL slot machine.,"For each game, press 1 to play the machine.",Please pay attention! There will be checks.,2902.955,TRAIN INFO,,,,,,,,,,,,,,,,,,,,,,,,,,,,,,,,
,evan-run-trial,287,1270754,0.0-287.0,,,,374.3650001,TRAIN OBSERVE,2,4,FALSE,1,10,10,10,Stimuli/MEG_Stimuli/intermediate/In01.png,Stimuli/MEG_Stimuli/intermediate/In02.png,Stimuli/MEG_Stimuli/intermediate/In03.png,Stimuli/MEG_Stimuli/intermediate/In06.png,49,1,,1,10,3,,,,,,,,,,,,,,,
,evan-run-trial,288,1273273,0.0-288.0,,,,270.3400003,TRAIN OBSERVE,2,4,FALSE,0,10,10,10,Stimuli/MEG_Stimuli/intermediate/In01.png,Stimuli/MEG_Stimuli/intermediate/In02.png,Stimuli/MEG_Stimuli/intermediate/In03.png,Stimuli/MEG_Stimuli/intermediate/In06.png,49,1,,2,10,3,,,,,,,,,,,,,,,
,evan-info-quiz,289,1277054,0.0-289.0,,,,3276.725,,,,,,,,,,,,,,,,,,,Stimuli/MEG_Stimuli/intermediate/In06.png,BARRELL,TRUE,FALSE,1,50,,,,,,,,,
,evan-run-trial,290,1279594,0.0-290.0,,,,306.5499999,TRAIN OBSERVE,2,4,FALSE,1,10,10,10,Stimuli/MEG_Stimuli/intermediate/In01.png,Stimuli/MEG_Stimuli/intermediate/In02.png,Stimuli/MEG_Stimuli/intermediate/In03.png,Stimuli/MEG_Stimuli/intermediate/In06.png,49,1,,1,10,3,,,,,,,,,,,,,,,
,evan-run-trial,291,1282063,0.0-291.0,,,,212.5600004,TRAIN OBSERVE,2,4,FALSE,1,10,10,10,Stimuli/MEG_Stimuli/intermediate/In01.png,Stimuli/MEG_Stimuli/intermediate/In02.png,Stimuli/MEG_Stimuli/intermediate/In03.png,Stimuli/MEG_Stimuli/intermediate/In06.png,49,1,,1,10,3,,,,,,,,,,,,,,,
,evan-info-quiz,292,1283998,0.0-292.0,,,,1430.905,,,,,,,,,,,,,,,,,,,Stimuli/MEG_Stimuli/intermediate/In01.png,WALLET,TRUE,TRUE,1,51,,,,,,,,,
,evan-run-trial,293,1286501,0.0-293.0,,,,257.8650001,TRAIN OBSERVE,2,4,FALSE,0,10,10,10,Stimuli/MEG_Stimuli/intermediate/In01.png,Stimuli/MEG_Stimuli/intermediate/In02.png,Stimuli/MEG_Stimuli/intermediate/In03.png,Stimuli/MEG_Stimuli/intermediate/In06.png,49,1,,2,10,3,,,,,,,,,,,,,,,
,evan-run-trial,294,1288936,0.0-294.0,,,,186.1950001,TRAIN OBSERVE,2,4,FALSE,0,10,10,10,Stimuli/MEG_Stimuli/intermediate/In01.png,Stimuli/MEG_Stimuli/intermediate/In02.png,Stimuli/MEG_Stimuli/intermediate/In03.png,Stimuli/MEG_Stimuli/intermediate/In06.png,49,1,,2,10,3,,,,,,,,,,,,,,,
,evan-run-trial,295,1291488,0.0-295.0,,,,310.8550003,TRAIN OBSERVE,2,4,FALSE,1,10,10,10,Stimuli/MEG_Stimuli/intermediate/In01.png,Stimuli/MEG_Stimuli/intermediate/In02.png,Stimuli/MEG_Stimuli/intermediate/In03.png,Stimuli/MEG_Stimuli/intermediate/In06.png,49,1,,1,10,3,,,,,,,,,,,,,,,
,evan-run-trial,296,1293908,0.0-296.0,,,,192.4000001,TRAIN OBSERVE,2,4,FALSE,1,10,10,10,Stimuli/MEG_Stimuli/intermediate/In01.png,Stimuli/MEG_Stimuli/intermediate/In02.png,Stimuli/MEG_Stimuli/intermediate/In03.png,Stimuli/MEG_Stimuli/intermediate/In06.png,49,1,,1,10,3,,,,,,,,,,,,,,,
,evan-info-quiz,297,1295710,0.0-297.0,,,,1299.215,,,,,,,,,,,,,,,,,,,Stimuli/MEG_Stimuli/intermediate/In06.png,BARRELL,FALSE,FALSE,1,51,,,,,,,,,
,evan-run-trial,298,1298278,0.0-298.0,,,,322.0850001,TRAIN OBSERVE,2,4,FALSE,0,10,10,10,Stimuli/MEG_Stimuli/intermediate/In01.png,Stimuli/MEG_Stimuli/intermediate/In02.png,Stimuli/MEG_Stimuli/intermediate/In03.png,Stimuli/MEG_Stimuli/intermediate/In06.png,49,1,,2,10,3,,,,,,,,,,,,,,,
,evan-run-trial,299,1300812,0.0-299.0,,,,297.2149998,TRAIN OBSERVE,2,4,FALSE,1,10,10,10,Stimuli/MEG_Stimuli/intermediate/In01.png,Stimuli/MEG_Stimuli/intermediate/In02.png,Stimuli/MEG_Stimuli/intermediate/In03.png,Stimuli/MEG_Stimuli/intermediate/In06.png,49,1,,1,10,3,,,,,,,,,,,,,,,
,evan-display-text,300,1302649,0.0-300.0,You'll now make some choices between the BARRELL and the ZEBRA machines to earn points!,Press 1 to select the LEFT machine and 2 to select the RIGHT machine.,"Before each choice, you'll be shown the number of points for each banknote. Pay attention!",1835.705,TRAIN INFO,,,,,,,,,,,,,,,,,,,,,,,,,,,,,,,,
,evan-two-stim-choice,301,1311305,0.0-301.0,,,,1738.695,TRAIN CHOICE,1,4,,,,0,10,Stimuli/MEG_Stimuli/intermediate/In01.png,Stimuli/MEG_Stimuli/intermediate/In02.png,,,50,,,1,,,,,,,,,0.6,0.8,2,1,Stimuli/MEG_Stimuli/intermediate/In01.png,0,TRUE,3,4
,evan-two-stim-choice,302,1318796,0.0-302.0,,,,586.41,TRAIN CHOICE,1,4,,,,-10,0,Stimuli/MEG_Stimuli/intermediate/In01.png,Stimuli/MEG_Stimuli/intermediate/In02.png,,,49,,,1,,,,,,,,,0.6,0.8,1,1,Stimuli/MEG_Stimuli/intermediate/In01.png,-10,TRUE,3,4
,evan-two-stim-choice,303,1326234,0.0-303.0,,,,519.1449998,TRAIN CHOICE,1,4,,,,10,0,Stimuli/MEG_Stimuli/intermediate/In01.png,Stimuli/MEG_Stimuli/intermediate/In02.png,,,50,,,2,,,,,,,,,0.6,0.8,2,2,Stimuli/MEG_Stimuli/intermediate/In02.png,0,TRUE,3,4
,evan-two-stim-choice,304,1335943,0.0-304.0,,,,2794.19,TRAIN CHOICE,1,4,,,,-10,0,Stimuli/MEG_Stimuli/intermediate/In01.png,Stimuli/MEG_Stimuli/intermediate/In02.png,,,50,,,1,,,,,,,,,0.6,0.8,2,1,Stimuli/MEG_Stimuli/intermediate/In01.png,-10,TRUE,3,4
,evan-two-stim-choice,305,1343832,0.0-305.0,,,,972.9849999,TRAIN CHOICE,1,4,,,,0,10,Stimuli/MEG_Stimuli/intermediate/In01.png,Stimuli/MEG_Stimuli/intermediate/In02.png,,,49,,,1,,,,,,,,,0.6,0.8,1,2,Stimuli/MEG_Stimuli/intermediate/In01.png,0,FALSE,3,4
,evan-two-stim-choice,306,1355427,0.0-306.0,,,,4681.86,TRAIN CHOICE,1,4,,,,0,10,Stimuli/MEG_Stimuli/intermediate/In01.png,Stimuli/MEG_Stimuli/intermediate/In02.png,,,50,,,1,,,,,,,,,0.6,0.8,2,1,Stimuli/MEG_Stimuli/intermediate/In01.png,0,TRUE,3,4
,evan-two-stim-choice,307,1362816,0.0-307.0,,,,495.4850003,TRAIN CHOICE,1,4,,,,0,-10,Stimuli/MEG_Stimuli/intermediate/In01.png,Stimuli/MEG_Stimuli/intermediate/In02.png,,,50,,,1,,,,,,,,,0.6,0.8,2,2,Stimuli/MEG_Stimuli/intermediate/In01.png,0,TRUE,3,4
,evan-two-stim-choice,308,1370256,0.0-308.0,,,,532.565,TRAIN CHOICE,1,4,,,,10,0,Stimuli/MEG_Stimuli/intermediate/In01.png,Stimuli/MEG_Stimuli/intermediate/In02.png,,,49,,,1,,,,,,,,,0.6,0.8,1,2,Stimuli/MEG_Stimuli/intermediate/In01.png,10,TRUE,3,4
,evan-two-stim-choice,309,1377863,0.0-309.0,,,,690.6849998,TRAIN CHOICE,1,4,,,,10,0,Stimuli/MEG_Stimuli/intermediate/In01.png,Stimuli/MEG_Stimuli/intermediate/In02.png,,,50,,,2,,,,,,,,,0.6,0.8,2,2,Stimuli/MEG_Stimuli/intermediate/In02.png,0,TRUE,3,4
,evan-two-stim-choice,310,1385686,0.0-310.0,,,,893.9350001,TRAIN CHOICE,1,4,,,,-10,0,Stimuli/MEG_Stimuli/intermediate/In01.png,Stimuli/MEG_Stimuli/intermediate/In02.png,,,50,,,1,,,,,,,,,0.6,0.8,2,1,Stimuli/MEG_Stimuli/intermediate/In01.png,-10,TRUE,3,4
,evan-two-stim-choice,311,1393392,0.0-311.0,,,,781.5200002,TRAIN CHOICE,1,4,,,,0,-10,Stimuli/MEG_Stimuli/intermediate/In01.png,Stimuli/MEG_Stimuli/intermediate/In02.png,,,50,,,2,,,,,,,,,0.6,0.8,2,1,Stimuli/MEG_Stimuli/intermediate/In02.png,-10,FALSE,3,4
,evan-two-stim-choice,312,1400866,0.0-312.0,,,,564.03,TRAIN CHOICE,1,4,,,,0,-10,Stimuli/MEG_Stimuli/intermediate/In01.png,Stimuli/MEG_Stimuli/intermediate/In02.png,,,50,,,1,,,,,,,,,0.6,0.8,2,2,Stimuli/MEG_Stimuli/intermediate/In01.png,0,TRUE,3,4
,evan-display-text,313,1408201,0.0-313.0,You'll now play the MARBLES slot machine.,"For each game, press 1 to play the machine.",Please pay attention! There will be checks.,7334.475,TRAIN INFO,,,,,,,,,,,,,,,,,,,,,,,,,,,,,,,,
,evan-run-trial,314,1410722,0.0-314.0,,,,294.9350001,TRAIN OBSERVE,2,4,FALSE,0,10,10,10,Stimuli/MEG_Stimuli/intermediate/In01.png,Stimuli/MEG_Stimuli/intermediate/In02.png,Stimuli/MEG_Stimuli/intermediate/In03.png,Stimuli/MEG_Stimuli/intermediate/In05.png,49,1,,2,10,2,,,,,,,,,,,,,,,
,evan-run-trial,315,1413241,0.0-315.0,,,,270.2699997,TRAIN OBSERVE,2,4,FALSE,1,10,10,10,Stimuli/MEG_Stimuli/intermediate/In01.png,Stimuli/MEG_Stimuli/intermediate/In02.png,Stimuli/MEG_Stimuli/intermediate/In03.png,Stimuli/MEG_Stimuli/intermediate/In05.png,49,1,,1,10,2,,,,,,,,,,,,,,,
,evan-run-trial,316,1415727,0.0-316.0,,,,246.3799999,TRAIN OBSERVE,2,4,FALSE,1,10,10,10,Stimuli/MEG_Stimuli/intermediate/In01.png,Stimuli/MEG_Stimuli/intermediate/In02.png,Stimuli/MEG_Stimuli/intermediate/In03.png,Stimuli/MEG_Stimuli/intermediate/In05.png,49,1,,1,10,2,,,,,,,,,,,,,,,
,evan-run-trial,317,1418179,0.0-317.0,,,,207.9099999,TRAIN OBSERVE,2,4,FALSE,0,10,10,10,Stimuli/MEG_Stimuli/intermediate/In01.png,Stimuli/MEG_Stimuli/intermediate/In02.png,Stimuli/MEG_Stimuli/intermediate/In03.png,Stimuli/MEG_Stimuli/intermediate/In05.png,49,1,,2,10,2,,,,,,,,,,,,,,,
,evan-run-trial,318,1420714,0.0-318.0,,,,283.8499998,TRAIN OBSERVE,2,4,FALSE,1,10,10,10,Stimuli/MEG_Stimuli/intermediate/In01.png,Stimuli/MEG_Stimuli/intermediate/In02.png,Stimuli/MEG_Stimuli/intermediate/In03.png,Stimuli/MEG_Stimuli/intermediate/In05.png,49,1,,1,10,2,,,,,,,,,,,,,,,
,evan-run-trial,319,1423182,0.0-319.0,,,,229.6700003,TRAIN OBSERVE,2,4,FALSE,0,10,10,10,Stimuli/MEG_Stimuli/intermediate/In01.png,Stimuli/MEG_Stimuli/intermediate/In02.png,Stimuli/MEG_Stimuli/intermediate/In03.png,Stimuli/MEG_Stimuli/intermediate/In05.png,49,1,,2,10,2,,,,,,,,,,,,,,,
,evan-run-trial,320,1425686,0.0-320.0,,,,256.5549999,TRAIN OBSERVE,2,4,FALSE,0,10,10,10,Stimuli/MEG_Stimuli/intermediate/In01.png,Stimuli/MEG_Stimuli/intermediate/In02.png,Stimuli/MEG_Stimuli/intermediate/In03.png,Stimuli/MEG_Stimuli/intermediate/In05.png,49,1,,2,10,2,,,,,,,,,,,,,,,
,evan-run-trial,321,1428255,0.0-321.0,,,,312.7549998,TRAIN OBSERVE,2,4,FALSE,1,10,10,10,Stimuli/MEG_Stimuli/intermediate/In01.png,Stimuli/MEG_Stimuli/intermediate/In02.png,Stimuli/MEG_Stimuli/intermediate/In03.png,Stimuli/MEG_Stimuli/intermediate/In05.png,49,1,,1,10,2,,,,,,,,,,,,,,,
,evan-run-trial,322,1430706,0.0-322.0,,,,208.9450001,TRAIN OBSERVE,2,4,FALSE,0,10,10,10,Stimuli/MEG_Stimuli/intermediate/In01.png,Stimuli/MEG_Stimuli/intermediate/In02.png,Stimuli/MEG_Stimuli/intermediate/In03.png,Stimuli/MEG_Stimuli/intermediate/In05.png,49,1,,2,10,2,,,,,,,,,,,,,,,
,evan-run-trial,323,1433191,0.0-323.0,,,,235.7649999,TRAIN OBSERVE,2,4,FALSE,0,10,10,10,Stimuli/MEG_Stimuli/intermediate/In01.png,Stimuli/MEG_Stimuli/intermediate/In02.png,Stimuli/MEG_Stimuli/intermediate/In03.png,Stimuli/MEG_Stimuli/intermediate/In05.png,49,1,,2,10,2,,,,,,,,,,,,,,,
,evan-display-text,324,1434249,0.0-324.0,You'll now play the KEY slot machine.,"For each game, press 1 to play the machine.",Please pay attention! There will be checks.,1056.27,TRAIN INFO,,,,,,,,,,,,,,,,,,,,,,,,,,,,,,,,
,evan-run-trial,325,1436912,0.0-325.0,,,,406.3149998,TRAIN OBSERVE,2,4,FALSE,0,10,10,10,Stimuli/MEG_Stimuli/intermediate/In01.png,Stimuli/MEG_Stimuli/intermediate/In02.png,Stimuli/MEG_Stimuli/intermediate/In03.png,Stimuli/MEG_Stimuli/intermediate/In04.png,49,1,,2,10,1,,,,,,,,,,,,,,,
,evan-run-trial,326,1439280,0.0-326.0,,,,144.4799998,TRAIN OBSERVE,2,4,FALSE,0,10,10,10,Stimuli/MEG_Stimuli/intermediate/In01.png,Stimuli/MEG_Stimuli/intermediate/In02.png,Stimuli/MEG_Stimuli/intermediate/In03.png,Stimuli/MEG_Stimuli/intermediate/In04.png,49,1,,2,10,1,,,,,,,,,,,,,,,
,evan-run-trial,327,1441699,0.0-327.0,,,,191.0250001,TRAIN OBSERVE,2,4,FALSE,0,10,10,10,Stimuli/MEG_Stimuli/intermediate/In01.png,Stimuli/MEG_Stimuli/intermediate/In02.png,Stimuli/MEG_Stimuli/intermediate/In03.png,Stimuli/MEG_Stimuli/intermediate/In04.png,49,1,,2,10,1,,,,,,,,,,,,,,,
,evan-info-quiz,328,1442831,0.0-328.0,,,,626.77,,,,,,,,,,,,,,,,,,,Stimuli/MEG_Stimuli/intermediate/In02.png,SCISSORS,TRUE,TRUE,1,50,,,,,,,,,
,evan-run-trial,329,1445319,0.0-329.0,,,,240.8050001,TRAIN OBSERVE,2,4,FALSE,0,10,10,10,Stimuli/MEG_Stimuli/intermediate/In01.png,Stimuli/MEG_Stimuli/intermediate/In02.png,Stimuli/MEG_Stimuli/intermediate/In03.png,Stimuli/MEG_Stimuli/intermediate/In04.png,49,1,,2,10,1,,,,,,,,,,,,,,,
,evan-run-trial,330,1447787,0.0-330.0,,,,217.2399997,TRAIN OBSERVE,2,4,FALSE,1,10,10,10,Stimuli/MEG_Stimuli/intermediate/In01.png,Stimuli/MEG_Stimuli/intermediate/In02.png,Stimuli/MEG_Stimuli/intermediate/In03.png,Stimuli/MEG_Stimuli/intermediate/In04.png,49,1,,1,10,1,,,,,,,,,,,,,,,
,evan-run-trial,331,1450272,0.0-331.0,,,,243.5349999,TRAIN OBSERVE,2,4,FALSE,0,10,10,10,Stimuli/MEG_Stimuli/intermediate/In01.png,Stimuli/MEG_Stimuli/intermediate/In02.png,Stimuli/MEG_Stimuli/intermediate/In03.png,Stimuli/MEG_Stimuli/intermediate/In04.png,49,1,,2,10,1,,,,,,,,,,,,,,,
,evan-run-trial,332,1452625,0.0-332.0,,,,96.1000002,TRAIN OBSERVE,2,4,FALSE,0,10,10,10,Stimuli/MEG_Stimuli/intermediate/In01.png,Stimuli/MEG_Stimuli/intermediate/In02.png,Stimuli/MEG_Stimuli/intermediate/In03.png,Stimuli/MEG_Stimuli/intermediate/In04.png,49,1,,2,10,1,,,,,,,,,,,,,,,
,evan-info-quiz,333,1453854,0.0-333.0,,,,724.2950001,,,,,,,,,,,,,,,,,,,Stimuli/MEG_Stimuli/intermediate/In02.png,SCISSORS,TRUE,TRUE,0,52,,,,,,,,,
,evan-run-trial,334,1456429,0.0-334.0,,,,336.9649998,TRAIN OBSERVE,2,4,FALSE,0,10,10,10,Stimuli/MEG_Stimuli/intermediate/In01.png,Stimuli/MEG_Stimuli/intermediate/In02.png,Stimuli/MEG_Stimuli/intermediate/In03.png,Stimuli/MEG_Stimuli/intermediate/In04.png,49,1,,2,10,1,,,,,,,,,,,,,,,
,evan-run-trial,335,1458880,0.0-335.0,,,,227.6850003,TRAIN OBSERVE,2,4,FALSE,1,10,10,10,Stimuli/MEG_Stimuli/intermediate/In01.png,Stimuli/MEG_Stimuli/intermediate/In02.png,Stimuli/MEG_Stimuli/intermediate/In03.png,Stimuli/MEG_Stimuli/intermediate/In04.png,49,1,,1,10,1,,,,,,,,,,,,,,,
,evan-info-quiz,336,1460477,0.0-336.0,,,,1093.575,,,,,,,,,,,,,,,,,,,Stimuli/MEG_Stimuli/intermediate/In04.png,KEY,TRUE,FALSE,1,50,,,,,,,,,
,evan-run-trial,337,1463084,0.0-337.0,,,,354.0950003,TRAIN OBSERVE,2,4,FALSE,0,10,10,10,Stimuli/MEG_Stimuli/intermediate/In01.png,Stimuli/MEG_Stimuli/intermediate/In02.png,Stimuli/MEG_Stimuli/intermediate/In03.png,Stimuli/MEG_Stimuli/intermediate/In04.png,49,1,,2,10,1,,,,,,,,,,,,,,,
,evan-display-text,338,1466297,0.0-338.0,You'll now make some choices between the KEY and the MARBLES machines to earn points!,Press 1 to select the LEFT machine and 2 to select the RIGHT machine.,"Before each choice, you'll be shown the number of points for each banknote. Pay attention!",3211.18,TRAIN INFO,,,,,,,,,,,,,,,,,,,,,,,,,,,,,,,,
,evan-two-stim-choice,339,1474310,0.0-339.0,,,,1106.34,TRAIN CHOICE,1,4,,,,10,0,Stimuli/MEG_Stimuli/intermediate/In01.png,Stimuli/MEG_Stimuli/intermediate/In02.png,,,49,,,2,,,,,,,,,0.2,0.4,1,2,Stimuli/MEG_Stimuli/intermediate/In02.png,0,TRUE,1,2
,evan-two-stim-choice,340,1481934,0.0-340.0,,,,684.2549997,TRAIN CHOICE,1,4,,,,-10,0,Stimuli/MEG_Stimuli/intermediate/In01.png,Stimuli/MEG_Stimuli/intermediate/In02.png,,,49,,,2,,,,,,,,,0.2,0.4,1,2,Stimuli/MEG_Stimuli/intermediate/In02.png,0,FALSE,1,2
,evan-two-stim-choice,341,1489773,0.0-341.0,,,,868.33,TRAIN CHOICE,1,4,,,,0,-10,Stimuli/MEG_Stimuli/intermediate/In01.png,Stimuli/MEG_Stimuli/intermediate/In02.png,,,50,,,2,,,,,,,,,0.2,0.4,2,2,Stimuli/MEG_Stimuli/intermediate/In02.png,-10,TRUE,1,2
,evan-two-stim-choice,342,1497562,0.0-342.0,,,,851.7300002,TRAIN CHOICE,1,4,,,,10,0,Stimuli/MEG_Stimuli/intermediate/In01.png,Stimuli/MEG_Stimuli/intermediate/In02.png,,,49,,,1,,,,,,,,,0.2,0.4,1,2,Stimuli/MEG_Stimuli/intermediate/In01.png,10,TRUE,1,2
,evan-two-stim-choice,343,1505003,0.0-343.0,,,,518.7599999,TRAIN CHOICE,1,4,,,,0,10,Stimuli/MEG_Stimuli/intermediate/In01.png,Stimuli/MEG_Stimuli/intermediate/In02.png,,,50,,,2,,,,,,,,,0.2,0.4,2,1,Stimuli/MEG_Stimuli/intermediate/In02.png,10,TRUE,1,2
,evan-two-stim-choice,344,1512777,0.0-344.0,,,,857.605,TRAIN CHOICE,1,4,,,,10,0,Stimuli/MEG_Stimuli/intermediate/In01.png,Stimuli/MEG_Stimuli/intermediate/In02.png,,,49,,,2,,,,,,,,,0.2,0.4,1,1,Stimuli/MEG_Stimuli/intermediate/In02.png,0,FALSE,1,2
,evan-two-stim-choice,345,1523302,0.0-345.0,,,,3626.005,TRAIN CHOICE,1,4,,,,0,-10,Stimuli/MEG_Stimuli/intermediate/In01.png,Stimuli/MEG_Stimuli/intermediate/In02.png,,,49,,,2,,,,,,,,,0.2,0.4,1,2,Stimuli/MEG_Stimuli/intermediate/In02.png,-10,TRUE,1,2
,evan-two-stim-choice,346,1530726,0.0-346.0,,,,509.9200001,TRAIN CHOICE,1,4,,,,-10,0,Stimuli/MEG_Stimuli/intermediate/In01.png,Stimuli/MEG_Stimuli/intermediate/In02.png,,,50,,,2,,,,,,,,,0.2,0.4,2,1,Stimuli/MEG_Stimuli/intermediate/In02.png,0,TRUE,1,2
,evan-two-stim-choice,347,1538348,0.0-347.0,,,,685.8049999,TRAIN CHOICE,1,4,,,,-10,0,Stimuli/MEG_Stimuli/intermediate/In01.png,Stimuli/MEG_Stimuli/intermediate/In02.png,,,49,,,2,,,,,,,,,0.2,0.4,1,1,Stimuli/MEG_Stimuli/intermediate/In02.png,0,TRUE,1,2
,evan-two-stim-choice,348,1547390,0.0-348.0,,,,2135.515,TRAIN CHOICE,1,4,,,,0,-10,Stimuli/MEG_Stimuli/intermediate/In01.png,Stimuli/MEG_Stimuli/intermediate/In02.png,,,50,,,1,,,,,,,,,0.2,0.4,2,2,Stimuli/MEG_Stimuli/intermediate/In01.png,0,TRUE,1,2
,evan-two-stim-choice,349,1554813,0.0-349.0,,,,501.2150002,TRAIN CHOICE,1,4,,,,0,10,Stimuli/MEG_Stimuli/intermediate/In01.png,Stimuli/MEG_Stimuli/intermediate/In02.png,,,50,,,2,,,,,,,,,0.2,0.4,2,1,Stimuli/MEG_Stimuli/intermediate/In02.png,10,TRUE,1,2
,evan-two-stim-choice,350,1562286,0.0-350.0,,,,566.05,TRAIN CHOICE,1,4,,,,0,10,Stimuli/MEG_Stimuli/intermediate/In01.png,Stimuli/MEG_Stimuli/intermediate/In02.png,,,49,,,2,,,,,,,,,0.2,0.4,1,1,Stimuli/MEG_Stimuli/intermediate/In02.png,10,TRUE,1,2
,evan-display-text,351,1567513,0.0-351.0,You'll now play the ZEBRA slot machine.,"For each game, press 1 to play the machine.",Please pay attention! There will be checks.,5225.615,TRAIN INFO,,,,,,,,,,,,,,,,,,,,,,,,,,,,,,,,
,evan-run-trial,352,1570291,0.0-352.0,,,,549.9,TRAIN OBSERVE,2,4,FALSE,1,10,10,10,Stimuli/MEG_Stimuli/intermediate/In01.png,Stimuli/MEG_Stimuli/intermediate/In02.png,Stimuli/MEG_Stimuli/intermediate/In03.png,Stimuli/MEG_Stimuli/intermediate/In07.png,49,1,,1,10,4,,,,,,,,,,,,,,,
,evan-run-trial,353,1572927,0.0-353.0,,,,381.2900004,TRAIN OBSERVE,2,4,FALSE,1,10,10,10,Stimuli/MEG_Stimuli/intermediate/In01.png,Stimuli/MEG_Stimuli/intermediate/In02.png,Stimuli/MEG_Stimuli/intermediate/In03.png,Stimuli/MEG_Stimuli/intermediate/In07.png,49,1,,1,10,4,,,,,,,,,,,,,,,
,evan-info-quiz,354,1574254,0.0-354.0,,,,822.6949996,,,,,,,,,,,,,,,,,,,Stimuli/MEG_Stimuli/intermediate/In07.png,ZEBRA,TRUE,FALSE,1,51,,,,,,,,,
,evan-run-trial,355,1576831,0.0-355.0,,,,322.5500002,TRAIN OBSERVE,2,4,FALSE,1,10,10,10,Stimuli/MEG_Stimuli/intermediate/In01.png,Stimuli/MEG_Stimuli/intermediate/In02.png,Stimuli/MEG_Stimuli/intermediate/In03.png,Stimuli/MEG_Stimuli/intermediate/In07.png,49,1,,1,10,4,,,,,,,,,,,,,,,
,evan-run-trial,356,1579434,0.0-356.0,,,,353.4499998,TRAIN OBSERVE,2,4,FALSE,1,10,10,10,Stimuli/MEG_Stimuli/intermediate/In01.png,Stimuli/MEG_Stimuli/intermediate/In02.png,Stimuli/MEG_Stimuli/intermediate/In03.png,Stimuli/MEG_Stimuli/intermediate/In07.png,49,1,,1,10,4,,,,,,,,,,,,,,,
,evan-run-trial,357,1581986,0.0-357.0,,,,294.4900002,TRAIN OBSERVE,2,4,FALSE,1,10,10,10,Stimuli/MEG_Stimuli/intermediate/In01.png,Stimuli/MEG_Stimuli/intermediate/In02.png,Stimuli/MEG_Stimuli/intermediate/In03.png,Stimuli/MEG_Stimuli/intermediate/In07.png,49,1,,1,10,4,,,,,,,,,,,,,,,
,evan-info-quiz,358,1583278,0.0-358.0,,,,789.02,,,,,,,,,,,,,,,,,,,Stimuli/MEG_Stimuli/intermediate/In07.png,ZEBRA,FALSE,FALSE,1,51,,,,,,,,,
,evan-run-trial,359,1585755,0.0-359.0,,,,241.7799998,TRAIN OBSERVE,2,4,FALSE,1,10,10,10,Stimuli/MEG_Stimuli/intermediate/In01.png,Stimuli/MEG_Stimuli/intermediate/In02.png,Stimuli/MEG_Stimuli/intermediate/In03.png,Stimuli/MEG_Stimuli/intermediate/In07.png,49,1,,1,10,4,,,,,,,,,,,,,,,
,evan-run-trial,360,1588308,0.0-360.0,,,,308.1300003,TRAIN OBSERVE,2,4,FALSE,0,10,10,10,Stimuli/MEG_Stimuli/intermediate/In01.png,Stimuli/MEG_Stimuli/intermediate/In02.png,Stimuli/MEG_Stimuli/intermediate/In03.png,Stimuli/MEG_Stimuli/intermediate/In07.png,49,1,,2,10,4,,,,,,,,,,,,,,,
,evan-run-trial,361,1590810,0.0-361.0,,,,252.6799999,TRAIN OBSERVE,2,4,FALSE,1,10,10,10,Stimuli/MEG_Stimuli/intermediate/In01.png,Stimuli/MEG_Stimuli/intermediate/In02.png,Stimuli/MEG_Stimuli/intermediate/In03.png,Stimuli/MEG_Stimuli/intermediate/In07.png,49,1,,1,10,4,,,,,,,,,,,,,,,
,evan-run-trial,362,1593428,0.0-362.0,,,,374.535,TRAIN OBSERVE,2,4,FALSE,1,10,10,10,Stimuli/MEG_Stimuli/intermediate/In01.png,Stimuli/MEG_Stimuli/intermediate/In02.png,Stimuli/MEG_Stimuli/intermediate/In03.png,Stimuli/MEG_Stimuli/intermediate/In07.png,49,1,,1,10,4,,,,,,,,,,,,,,,
,evan-run-trial,363,1595897,0.0-363.0,,,,235.0300001,TRAIN OBSERVE,2,4,FALSE,0,10,10,10,Stimuli/MEG_Stimuli/intermediate/In01.png,Stimuli/MEG_Stimuli/intermediate/In02.png,Stimuli/MEG_Stimuli/intermediate/In03.png,Stimuli/MEG_Stimuli/intermediate/In07.png,49,1,,2,10,4,,,,,,,,,,,,,,,
,evan-display-text,364,1605433,0.0-364.0,You'll now play the MARBLES slot machine.,"For each game, press 1 to play the machine.",Please pay attention! There will be checks.,9534.72,TRAIN INFO,,,,,,,,,,,,,,,,,,,,,,,,,,,,,,,,
,evan-run-trial,365,1607974,0.0-365.0,,,,311.0700003,TRAIN OBSERVE,2,4,FALSE,0,10,10,10,Stimuli/MEG_Stimuli/intermediate/In01.png,Stimuli/MEG_Stimuli/intermediate/In02.png,Stimuli/MEG_Stimuli/intermediate/In03.png,Stimuli/MEG_Stimuli/intermediate/In05.png,49,1,,2,10,2,,,,,,,,,,,,,,,
,evan-run-trial,366,1610527,0.0-366.0,,,,298.2100002,TRAIN OBSERVE,2,4,FALSE,0,10,10,10,Stimuli/MEG_Stimuli/intermediate/In01.png,Stimuli/MEG_Stimuli/intermediate/In02.png,Stimuli/MEG_Stimuli/intermediate/In03.png,Stimuli/MEG_Stimuli/intermediate/In05.png,49,1,,2,10,2,,,,,,,,,,,,,,,
,evan-run-trial,367,1613062,0.0-367.0,,,,289.6150001,TRAIN OBSERVE,2,4,FALSE,0,10,10,10,Stimuli/MEG_Stimuli/intermediate/In01.png,Stimuli/MEG_Stimuli/intermediate/In02.png,Stimuli/MEG_Stimuli/intermediate/In03.png,Stimuli/MEG_Stimuli/intermediate/In05.png,49,1,,2,10,2,,,,,,,,,,,,,,,
,evan-run-trial,368,1615598,0.0-368.0,,,,281.56,TRAIN OBSERVE,2,4,FALSE,0,10,10,10,Stimuli/MEG_Stimuli/intermediate/In01.png,Stimuli/MEG_Stimuli/intermediate/In02.png,Stimuli/MEG_Stimuli/intermediate/In03.png,Stimuli/MEG_Stimuli/intermediate/In05.png,49,1,,2,10,2,,,,,,,,,,,,,,,
,evan-run-trial,369,1618100,0.0-369.0,,,,258.2950001,TRAIN OBSERVE,2,4,FALSE,1,10,10,10,Stimuli/MEG_Stimuli/intermediate/In01.png,Stimuli/MEG_Stimuli/intermediate/In02.png,Stimuli/MEG_Stimuli/intermediate/In03.png,Stimuli/MEG_Stimuli/intermediate/In05.png,49,1,,1,10,2,,,,,,,,,,,,,,,
,evan-info-quiz,370,1619359,0.0-370.0,,,,754.375,,,,,,,,,,,,,,,,,,,Stimuli/MEG_Stimuli/intermediate/In01.png,WALLET,TRUE,TRUE,1,50,,,,,,,,,
,evan-run-trial,371,1621870,0.0-371.0,,,,272.9149996,TRAIN OBSERVE,2,4,FALSE,0,10,10,10,Stimuli/MEG_Stimuli/intermediate/In01.png,Stimuli/MEG_Stimuli/intermediate/In02.png,Stimuli/MEG_Stimuli/intermediate/In03.png,Stimuli/MEG_Stimuli/intermediate/In05.png,49,1,,2,10,2,,,,,,,,,,,,,,,
,evan-run-trial,372,1624422,0.0-372.0,,,,306.7999999,TRAIN OBSERVE,2,4,FALSE,1,10,10,10,Stimuli/MEG_Stimuli/intermediate/In01.png,Stimuli/MEG_Stimuli/intermediate/In02.png,Stimuli/MEG_Stimuli/intermediate/In03.png,Stimuli/MEG_Stimuli/intermediate/In05.png,49,1,,1,10,2,,,,,,,,,,,,,,,
,evan-run-trial,373,1626974,0.0-373.0,,,,298.8900002,TRAIN OBSERVE,2,4,FALSE,0,10,10,10,Stimuli/MEG_Stimuli/intermediate/In01.png,Stimuli/MEG_Stimuli/intermediate/In02.png,Stimuli/MEG_Stimuli/intermediate/In03.png,Stimuli/MEG_Stimuli/intermediate/In05.png,49,1,,2,10,2,,,,,,,,,,,,,,,
,evan-info-quiz,374,1628446,0.0-374.0,,,,968.965,,,,,,,,,,,,,,,,,,,Stimuli/MEG_Stimuli/intermediate/In05.png,MARBLES,FALSE,FALSE,1,50,,,,,,,,,
,evan-run-trial,375,1630978,0.0-375.0,,,,289.3000003,TRAIN OBSERVE,2,4,FALSE,1,10,10,10,Stimuli/MEG_Stimuli/intermediate/In01.png,Stimuli/MEG_Stimuli/intermediate/In02.png,Stimuli/MEG_Stimuli/intermediate/In03.png,Stimuli/MEG_Stimuli/intermediate/In05.png,49,1,,1,10,2,,,,,,,,,,,,,,,
,evan-run-trial,376,1633496,0.0-376.0,,,,286.1649999,TRAIN OBSERVE,2,4,FALSE,1,10,10,10,Stimuli/MEG_Stimuli/intermediate/In01.png,Stimuli/MEG_Stimuli/intermediate/In02.png,Stimuli/MEG_Stimuli/intermediate/In03.png,Stimuli/MEG_Stimuli/intermediate/In05.png,49,1,,1,10,2,,,,,,,,,,,,,,,
,evan-display-text,377,1634409,0.0-377.0,You'll now make some choices between the MARBLES and the ZEBRA machines to earn points!,Press 1 to select the LEFT machine and 2 to select the RIGHT machine.,"Before each choice, you'll be shown the number of points for each banknote. Pay attention!",911.595,TRAIN INFO,,,,,,,,,,,,,,,,,,,,,,,,,,,,,,,,
,evan-two-stim-choice,378,1645273,0.0-378.0,,,,3959.215,TRAIN CHOICE,1,4,,,,-10,0,Stimuli/MEG_Stimuli/intermediate/In01.png,Stimuli/MEG_Stimuli/intermediate/In02.png,,,50,,,1,,,,,,,,,0.4,0.8,2,1,Stimuli/MEG_Stimuli/intermediate/In01.png,-10,TRUE,2,4
,evan-two-stim-choice,379,1653179,0.0-379.0,,,,1002.12,TRAIN CHOICE,1,4,,,,0,10,Stimuli/MEG_Stimuli/intermediate/In01.png,Stimuli/MEG_Stimuli/intermediate/In02.png,,,50,,,1,,,,,,,,,0.4,0.8,2,1,Stimuli/MEG_Stimuli/intermediate/In01.png,0,TRUE,2,4
,evan-two-stim-choice,380,1663656,0.0-380.0,,,,3559.595,TRAIN CHOICE,1,4,,,,10,0,Stimuli/MEG_Stimuli/intermediate/In01.png,Stimuli/MEG_Stimuli/intermediate/In02.png,,,50,,,2,,,,,,,,,0.4,0.8,2,2,Stimuli/MEG_Stimuli/intermediate/In02.png,0,TRUE,2,4
,evan-two-stim-choice,381,1671995,0.0-381.0,,,,1420.735,TRAIN CHOICE,1,4,,,,0,10,Stimuli/MEG_Stimuli/intermediate/In01.png,Stimuli/MEG_Stimuli/intermediate/In02.png,,,49,,,2,,,,,,,,,0.4,0.8,1,1,Stimuli/MEG_Stimuli/intermediate/In02.png,10,TRUE,2,4
,evan-two-stim-choice,382,1679852,0.0-382.0,,,,952.025,TRAIN CHOICE,1,4,,,,0,-10,Stimuli/MEG_Stimuli/intermediate/In01.png,Stimuli/MEG_Stimuli/intermediate/In02.png,,,49,,,1,,,,,,,,,0.4,0.8,1,2,Stimuli/MEG_Stimuli/intermediate/In01.png,0,TRUE,2,4
,evan-two-stim-choice,383,1688942,0.0-383.0,,,,2152.005,TRAIN CHOICE,1,4,,,,0,10,Stimuli/MEG_Stimuli/intermediate/In01.png,Stimuli/MEG_Stimuli/intermediate/In02.png,,,50,,,1,,,,,,,,,0.4,0.8,2,1,Stimuli/MEG_Stimuli/intermediate/In01.png,0,TRUE,2,4
,evan-two-stim-choice,384,1696666,0.0-384.0,,,,803.5800001,TRAIN CHOICE,1,4,,,,0,-10,Stimuli/MEG_Stimuli/intermediate/In01.png,Stimuli/MEG_Stimuli/intermediate/In02.png,,,50,,,2,,,,,,,,,0.4,0.8,2,2,Stimuli/MEG_Stimuli/intermediate/In02.png,-10,TRUE,2,4
,evan-two-stim-choice,385,1705158,0.0-385.0,,,,1576.175,TRAIN CHOICE,1,4,,,,-10,0,Stimuli/MEG_Stimuli/intermediate/In01.png,Stimuli/MEG_Stimuli/intermediate/In02.png,,,49,,,1,,,,,,,,,0.4,0.8,1,1,Stimuli/MEG_Stimuli/intermediate/In01.png,-10,TRUE,2,4
,evan-two-stim-choice,386,1712613,0.0-386.0,,,,558.4800001,TRAIN CHOICE,1,4,,,,10,0,Stimuli/MEG_Stimuli/intermediate/In01.png,Stimuli/MEG_Stimuli/intermediate/In02.png,,,49,,,1,,,,,,,,,0.4,0.8,1,2,Stimuli/MEG_Stimuli/intermediate/In01.png,10,TRUE,2,4
,evan-two-stim-choice,387,1719985,0.0-387.0,,,,462.9199998,TRAIN CHOICE,1,4,,,,0,-10,Stimuli/MEG_Stimuli/intermediate/In01.png,Stimuli/MEG_Stimuli/intermediate/In02.png,,,49,,,1,,,,,,,,,0.4,0.8,1,2,Stimuli/MEG_Stimuli/intermediate/In01.png,0,TRUE,2,4
,evan-two-stim-choice,388,1727394,0.0-388.0,,,,529.5549999,TRAIN CHOICE,1,4,,,,-10,0,Stimuli/MEG_Stimuli/intermediate/In01.png,Stimuli/MEG_Stimuli/intermediate/In02.png,,,49,,,1,,,,,,,,,0.4,0.8,1,1,Stimuli/MEG_Stimuli/intermediate/In01.png,-10,TRUE,2,4
