success,trial_type,trial_index,time_elapsed,internal_node_id,line_1,line_2,line_3,rt,phase,lag,key,start_reward,decay,n_travel_steps,press_success_prob_travel,press_success_prob_harvest,reward_noise,start_reward_noise,time_min,travel_key,harvest_key,person_pos,tree_pos,reward_obs,reward_true,exit,fail
TRUE,fullscreen,0,2044,0.0-0.0,,,,,,,,,,,,,,,,,,,,,,,
,evan-display-text,1,3597,0.0-1.0,Traveling to a new environment,"Travel key: F, Harvest key: J",,1545.385,,,,,,,,,,,,,,,,,,,
TRUE,travel,2,5036,0.0-2.0,,,,,TRAVEL,1435.2,70,100,0.98,12,0.7,0.7,2.5,4,2,f,j,1,15,,,,
FALSE,travel,2,5037,0.0-2.0,,,,,TRAVEL,1435.2,70,100,0.98,12,0.7,0.7,2.5,4,2,f,j,2,15,,,,
TRUE,travel,2,5259,0.0-2.0,,,,,TRAVEL,222.0449997,70,100,0.98,12,0.7,0.7,2.5,4,2,f,j,2,15,,,,
FALSE,travel,2,5259,0.0-2.0,,,,,TRAVEL,222.0449997,70,100,0.98,12,0.7,0.7,2.5,4,2,f,j,3,15,,,,
TRUE,travel,2,5467,0.0-2.0,,,,,TRAVEL,207.4899999,70,100,0.98,12,0.7,0.7,2.5,4,2,f,j,3,15,,,,
FALSE,travel,2,5467,0.0-2.0,,,,,TRAVEL,207.4899999,70,100,0.98,12,0.7,0.7,2.5,4,2,f,j,4,15,,,,
TRUE,travel,2,5659,0.0-2.0,,,,,TRAVEL,191.7400006,70,100,0.98,12,0.7,0.7,2.5,4,2,f,j,4,15,,,,
FALSE,travel,2,5659,0.0-2.0,,,,,TRAVEL,191.7400006,70,100,0.98,12,0.7,0.7,2.5,4,2,f,j,5,15,,,,
FALSE,travel,2,5835,0.0-2.0,,,,,TRAVEL,175.6650005,70,100,0.98,12,0.7,0.7,2.5,4,2,f,j,5,15,,,,
TRUE,travel,2,6043,0.0-2.0,,,,,TRAVEL,207.7649999,70,100,0.98,12,0.7,0.7,2.5,4,2,f,j,5,15,,,,
FALSE,travel,2,6043,0.0-2.0,,,,,TRAVEL,207.7649999,70,100,0.98,12,0.7,0.7,2.5,4,2,f,j,6,15,,,,
TRUE,travel,2,6251,0.0-2.0,,,,,TRAVEL,207.9299996,70,100,0.98,12,0.7,0.7,2.5,4,2,f,j,6,15,,,,
FALSE,travel,2,6251,0.0-2.0,,,,,TRAVEL,207.9299996,70,100,0.98,12,0.7,0.7,2.5,4,2,f,j,7,15,,,,
TRUE,travel,2,6443,0.0-2.0,,,,,TRAVEL,191.4250003,70,100,0.98,12,0.7,0.7,2.5,4,2,f,j,7,15,,,,
FALSE,travel,2,6443,0.0-2.0,,,,,TRAVEL,191.4250003,70,100,0.98,12,0.7,0.7,2.5,4,2,f,j,8,15,,,,
FALSE,travel,2,6651,0.0-2.0,,,,,TRAVEL,207.6650001,70,100,0.98,12,0.7,0.7,2.5,4,2,f,j,8,15,,,,
TRUE,travel,2,6843,0.0-2.0,,,,,TRAVEL,191.8299999,70,100,0.98,12,0.7,0.7,2.5,4,2,f,j,8,15,,,,
FALSE,travel,2,6843,0.0-2.0,,,,,TRAVEL,191.8299999,70,100,0.98,12,0.7,0.7,2.5,4,2,f,j,9,15,,,,
FALSE,travel,2,7051,0.0-2.0,,,,,TRAVEL,207.8250004,70,100,0.98,12,0.7,0.7,2.5,4,2,f,j,9,15,,,,
TRUE,travel,2,7259,0.0-2.0,,,,,TRAVEL,207.8,70,100,0.98,12,0.7,0.7,2.5,4,2,f,j,9,15,,,,
FALSE,travel,2,7259,0.0-2.0,,,,,TRAVEL,207.8,70,100,0.98,12,0.7,0.7,2.5,4,2,f,j,10,15,,,,
TRUE,travel,2,7467,0.0-2.0,,,,,TRAVEL,207.7550003,70,100,0.98,12,0.7,0.7,2.5,4,2,f,j,10,15,,,,
FALSE,travel,2,7467,0.0-2.0,,,,,TRAVEL,207.7550003,70,100,0.98,12,0.7,0.7,2.5,4,2,f,j,11,15,,,,
TRUE,travel,2,7691,0.0-2.0,,,,,TRAVEL,223.6850001,70,100,0.98,12,0.7,0.7,2.5,4,2,f,j,11,15,,,,
FALSE,travel,2,7691,0.0-2.0,,,,,TRAVEL,223.6850001,70,100,0.98,12,0.7,0.7,2.5,4,2,f,j,12,15,,,,
TRUE,travel,2,7899,0.0-2.0,,,,,TRAVEL,207.7000001,70,100,0.98,12,0.7,0.7,2.5,4,2,f,j,12,15,,,,
TRUE,travel,2,9011,0.0-2.0,,,,,Harvest,1102.995,74,100,0.98,12,0.7,0.7,2.5,4,2,f,j,13,15,111.7733303,106.0931249,0,
TRUE,travel,2,9212,0.0-2.0,,,,,Harvest,200.1499999,74,100,0.98,12,0.7,0.7,2.5,4,2,f,j,13,15,104.1840402,103.9712624,0,
FALSE,travel,2,9404,0.0-2.0,,,,,Harvest,190.4649995,74,100,0.98,12,0.7,0.7,2.5,4,2,f,j,13,15,null,101.8918372,0,
TRUE,travel,2,9564,0.0-2.0,,,,,Harvest,159.035,74,100,0.98,12,0.7,0.7,2.5,4,2,f,j,13,15,104.0414052,101.8918372,0,
TRUE,travel,2,9740,0.0-2.0,,,,,Harvest,174.815,74,100,0.98,12,0.7,0.7,2.5,4,2,f,j,13,15,102.1911125,99.85400041,0,
TRUE,travel,2,9900,0.0-2.0,,,,,Harvest,158.9700002,74,100,0.98,12,0.7,0.7,2.5,4,2,f,j,13,15,98.60759021,97.8569204,0,
TRUE,travel,2,10076,0.0-2.0,,,,,Harvest,174.9999998,74,100,0.98,12,0.7,0.7,2.5,4,2,f,j,13,15,93.61618399,95.89978199,0,
TRUE,travel,2,10252,0.0-2.0,,,,,Harvest,175.2549997,74,100,0.98,12,0.7,0.7,2.5,4,2,f,j,13,15,95.01495077,93.98178635,0,
FALSE,travel,2,10459,0.0-2.0,,,,,Harvest,207.4449994,74,100,0.98,12,0.7,0.7,2.5,4,2,f,j,13,15,null,92.10215062,0,
FALSE,travel,2,10667,0.0-2.0,,,,,Harvest,207.525,74,100,0.98,12,0.7,0.7,2.5,4,2,f,j,13,15,null,92.10215062,0,
TRUE,travel,2,10860,0.0-2.0,,,,,Harvest,191.6000005,74,100,0.98,12,0.7,0.7,2.5,4,2,f,j,13,15,91.01886767,92.10215062,0,
TRUE,travel,2,11036,0.0-2.0,,,,,Harvest,174.9949995,74,100,0.98,12,0.7,0.7,2.5,4,2,f,j,13,15,89.37651817,90.26010761,0,
FALSE,travel,2,11227,0.0-2.0,,,,,Harvest,190.9849998,74,100,0.98,12,0.7,0.7,2.5,4,2,f,j,13,15,null,88.45490546,0,
TRUE,travel,2,11420,0.0-2.0,,,,,Harvest,191.4399993,74,100,0.98,12,0.7,0.7,2.5,4,2,f,j,13,15,84.75190657,88.45490546,0,
FALSE,travel,2,11595,0.0-2.0,,,,,Harvest,175.0949994,74,100,0.98,12,0.7,0.7,2.5,4,2,f,j,13,15,null,86.68580735,0,
TRUE,travel,2,11788,0.0-2.0,,,,,Harvest,191.6399999,74,100,0.98,12,0.7,0.7,2.5,4,2,f,j,13,15,84.02520999,86.68580735,0,
TRUE,travel,2,11980,0.0-2.0,,,,,Harvest,191.2199995,74,100,0.98,12,0.7,0.7,2.5,4,2,f,j,13,15,83.85643213,84.9520912,0,
TRUE,travel,2,12172,0.0-2.0,,,,,Harvest,191.0699997,74,100,0.98,12,0.7,0.7,2.5,4,2,f,j,13,15,85.0917378,83.25304938,0,
TRUE,travel,2,12348,0.0-2.0,,,,,Harvest,175.1650004,74,100,0.98,12,0.7,0.7,2.5,4,2,f,j,13,15,82.2434958,81.58798839,0,
TRUE,travel,2,12524,0.0-2.0,,,,,Harvest,175.3899995,74,100,0.98,12,0.7,0.7,2.5,4,2,f,j,13,15,82.66645491,79.95622862,0,
TRUE,travel,2,12732,0.0-2.0,,,,,Harvest,207.44,74,100,0.98,12,0.7,0.7,2.5,4,2,f,j,13,15,78.94336643,78.35710405,0,
TRUE,travel,2,12924,0.0-2.0,,,,,Harvest,191.0099993,74,100,0.98,12,0.7,0.7,2.5,4,2,f,j,13,15,76.54385002,76.78996197,0,
TRUE,travel,2,13132,0.0-2.0,,,,,Harvest,207.32,74,100,0.98,12,0.7,0.7,2.5,4,2,f,j,13,15,74.324694,75.25416273,0,
TRUE,travel,2,13340,0.0-2.0,,,,,Harvest,207.1800008,74,100,0.98,12,0.7,0.7,2.5,4,2,f,j,13,15,74.70784126,73.74907948,0,
FALSE,travel,2,13564,0.0-2.0,,,,,Harvest,223.4799992,74,100,0.98,12,0.7,0.7,2.5,4,2,f,j,13,15,null,72.27409789,0,
FALSE,travel,2,13819,0.0-2.0,,,,,Harvest,254.9600005,74,100,0.98,12,0.7,0.7,2.5,4,2,f,j,13,15,null,72.27409789,0,
FALSE,travel,2,14027,0.0-2.0,,,,,Harvest,207.7400004,74,100,0.98,12,0.7,0.7,2.5,4,2,f,j,13,15,null,72.27409789,0,
TRUE,travel,2,14204,0.0-2.0,,,,,Harvest,175.6450003,74,100,0.98,12,0.7,0.7,2.5,4,2,f,j,13,15,70.64905954,72.27409789,0,
TRUE,travel,2,14380,0.0-2.0,,,,,Harvest,175.2300002,74,100,0.98,12,0.7,0.7,2.5,4,2,f,j,13,15,68.95949804,70.82861593,0,
FALSE,travel,2,14571,0.0-2.0,,,,,Harvest,191.2850002,74,100,0.98,12,0.7,0.7,2.5,4,2,f,j,13,15,null,69.41204361,0,
TRUE,travel,2,14764,0.0-2.0,,,,,Harvest,191.8049995,74,100,0.98,12,0.7,0.7,2.5,4,2,f,j,13,15,72.1238552,69.41204361,0,
FALSE,travel,2,14971,0.0-2.0,,,,,Harvest,207.3249994,74,100,0.98,12,0.7,0.7,2.5,4,2,f,j,13,15,null,68.02380274,0,
TRUE,travel,2,15180,0.0-2.0,,,,,Harvest,207.68,74,100,0.98,12,0.7,0.7,2.5,4,2,f,j,13,15,69.19207259,68.02380274,0,
FALSE,travel,2,15371,0.0-2.0,,,,,Harvest,191.2700003,74,100,0.98,12,0.7,0.7,2.5,4,2,f,j,13,15,null,66.66332668,0,
TRUE,travel,2,15563,0.0-2.0,,,,,Harvest,191.6749999,74,100,0.98,12,0.7,0.7,2.5,4,2,f,j,13,15,67.23020369,66.66332668,0,
TRUE,travel,2,15756,0.0-2.0,,,,,Harvest,191.385,74,100,0.98,12,0.7,0.7,2.5,4,2,f,j,13,15,60.45397776,65.33006015,0,
FALSE,travel,2,15931,0.0-2.0,,,,,Harvest,175.4450006,74,100,0.98,12,0.7,0.7,2.5,4,2,f,j,13,15,null,64.02345895,0,
,travel,2,16076,0.0-2.0,,,,,Harvest,143.6949996,70,100,0.98,12,0.7,0.7,2.5,4,2,f,j,14,27,null,,1,null
FALSE,travel,2,16283,0.0-2.0,,,,,TRAVEL,206.8999996,70,100,0.98,12,0.7,0.7,2.5,4,2,f,j,14,27,,,,
FALSE,travel,2,16459,0.0-2.0,,,,,TRAVEL,175.7500004,70,100,0.98,12,0.7,0.7,2.5,4,2,f,j,14,27,,,,
TRUE,travel,2,16635,0.0-2.0,,,,,TRAVEL,175.8849993,70,100,0.98,12,0.7,0.7,2.5,4,2,f,j,14,27,,,,
FALSE,travel,2,16635,0.0-2.0,,,,,TRAVEL,175.8849993,70,100,0.98,12,0.7,0.7,2.5,4,2,f,j,15,27,,,,
FALSE,travel,2,16811,0.0-2.0,,,,,TRAVEL,175.5649997,70,100,0.98,12,0.7,0.7,2.5,4,2,f,j,15,27,,,,
TRUE,travel,2,16955,0.0-2.0,,,,,TRAVEL,143.8250002,70,100,0.98,12,0.7,0.7,2.5,4,2,f,j,15,27,,,,
FALSE,travel,2,16955,0.0-2.0,,,,,TRAVEL,143.8250002,70,100,0.98,12,0.7,0.7,2.5,4,2,f,j,16,27,,,,
TRUE,travel,2,17131,0.0-2.0,,,,,TRAVEL,175.7149994,70,100,0.98,12,0.7,0.7,2.5,4,2,f,j,16,27,,,,
FALSE,travel,2,17131,0.0-2.0,,,,,TRAVEL,175.7149994,70,100,0.98,12,0.7,0.7,2.5,4,2,f,j,17,27,,,,
TRUE,travel,2,17307,0.0-2.0,,,,,TRAVEL,175.6250001,70,100,0.98,12,0.7,0.7,2.5,4,2,f,j,17,27,,,,
FALSE,travel,2,17307,0.0-2.0,,,,,TRAVEL,175.6250001,70,100,0.98,12,0.7,0.7,2.5,4,2,f,j,18,27,,,,
TRUE,travel,2,17483,0.0-2.0,,,,,TRAVEL,175.7349996,70,100,0.98,12,0.7,0.7,2.5,4,2,f,j,18,27,,,,
FALSE,travel,2,17483,0.0-2.0,,,,,TRAVEL,175.7349996,70,100,0.98,12,0.7,0.7,2.5,4,2,f,j,19,27,,,,
TRUE,travel,2,17659,0.0-2.0,,,,,TRAVEL,175.6750001,70,100,0.98,12,0.7,0.7,2.5,4,2,f,j,19,27,,,,
FALSE,travel,2,17659,0.0-2.0,,,,,TRAVEL,175.6750001,70,100,0.98,12,0.7,0.7,2.5,4,2,f,j,20,27,,,,
TRUE,travel,2,17867,0.0-2.0,,,,,TRAVEL,207.7799998,70,100,0.98,12,0.7,0.7,2.5,4,2,f,j,20,27,,,,
FALSE,travel,2,17867,0.0-2.0,,,,,TRAVEL,207.7799998,70,100,0.98,12,0.7,0.7,2.5,4,2,f,j,21,27,,,,
TRUE,travel,2,18043,0.0-2.0,,,,,TRAVEL,175.6449994,70,100,0.98,12,0.7,0.7,2.5,4,2,f,j,21,27,,,,
FALSE,travel,2,18043,0.0-2.0,,,,,TRAVEL,175.6449994,70,100,0.98,12,0.7,0.7,2.5,4,2,f,j,22,27,,,,
FALSE,travel,2,18219,0.0-2.0,,,,,TRAVEL,175.6649995,70,100,0.98,12,0.7,0.7,2.5,4,2,f,j,22,27,,,,
TRUE,travel,2,18427,0.0-2.0,,,,,TRAVEL,207.8499999,70,100,0.98,12,0.7,0.7,2.5,4,2,f,j,22,27,,,,
FALSE,travel,2,18427,0.0-2.0,,,,,TRAVEL,207.8499999,70,100,0.98,12,0.7,0.7,2.5,4,2,f,j,23,27,,,,
TRUE,travel,2,18619,0.0-2.0,,,,,TRAVEL,191.6100001,70,100,0.98,12,0.7,0.7,2.5,4,2,f,j,23,27,,,,
FALSE,travel,2,18619,0.0-2.0,,,,,TRAVEL,191.6100001,70,100,0.98,12,0.7,0.7,2.5,4,2,f,j,24,27,,,,
FALSE,travel,2,18811,0.0-2.0,,,,,TRAVEL,191.8849992,70,100,0.98,12,0.7,0.7,2.5,4,2,f,j,24,27,,,,
FALSE,travel,2,18987,0.0-2.0,,,,,TRAVEL,175.7500004,70,100,0.98,12,0.7,0.7,2.5,4,2,f,j,24,27,,,,
TRUE,travel,2,19179,0.0-2.0,,,,,TRAVEL,191.7849993,70,100,0.98,12,0.7,0.7,2.5,4,2,f,j,24,27,,,,
TRUE,travel,2,19644,0.0-2.0,,,,,Harvest,463.5699997,74,100,0.98,12,0.7,0.7,2.5,4,2,f,j,25,27,101.7252074,102.398403,0,
TRUE,travel,2,19835,0.0-2.0,,,,,Harvest,191.2000002,74,100,0.98,12,0.7,0.7,2.5,4,2,f,j,25,27,100.5597839,100.350435,0,
TRUE,travel,2,20012,0.0-2.0,,,,,Harvest,174.3949996,74,100,0.98,12,0.7,0.7,2.5,4,2,f,j,25,27,98.33482259,98.34342629,0,
TRUE,travel,2,20204,0.0-2.0,,,,,Harvest,191.9750003,74,100,0.98,12,0.7,0.7,2.5,4,2,f,j,25,27,93.96416354,96.37655776,0,
TRUE,travel,2,20380,0.0-2.0,,,,,Harvest,174.6549997,74,100,0.98,12,0.7,0.7,2.5,4,2,f,j,25,27,92.35782997,94.44902661,0,
TRUE,travel,2,20572,0.0-2.0,,,,,Harvest,191.3350001,74,100,0.98,12,0.7,0.7,2.5,4,2,f,j,25,27,90.44979917,92.56004608,0,
TRUE,travel,2,20764,0.0-2.0,,,,,Harvest,191.3600005,74,100,0.98,12,0.7,0.7,2.5,4,2,f,j,25,27,92.86785021,90.70884515,0,
TRUE,travel,2,20956,0.0-2.0,,,,,Harvest,190.8649998,74,100,0.98,12,0.7,0.7,2.5,4,2,f,j,25,27,90.556815,88.89466825,0,
FALSE,travel,2,21147,0.0-2.0,,,,,Harvest,191.0600001,74,100,0.98,12,0.7,0.7,2.5,4,2,f,j,25,27,null,87.11677489,0,
TRUE,travel,2,21372,0.0-2.0,,,,,Harvest,223.855,74,100,0.98,12,0.7,0.7,2.5,4,2,f,j,25,27,85.65756677,87.11677489,0,
TRUE,travel,2,21580,0.0-2.0,,,,,Harvest,206.7050003,74,100,0.98,12,0.7,0.7,2.5,4,2,f,j,25,27,84.77102543,85.37443939,0,
TRUE,travel,2,21804,0.0-2.0,,,,,Harvest,222.9150003,74,100,0.98,12,0.7,0.7,2.5,4,2,f,j,25,27,85.2060056,83.6669506,0,
TRUE,travel,2,22012,0.0-2.0,,,,,Harvest,206.9800003,74,100,0.98,12,0.7,0.7,2.5,4,2,f,j,25,27,79.92106748,81.99361159,0,
TRUE,travel,2,22252,0.0-2.0,,,,,Harvest,239.0350001,74,100,0.98,12,0.7,0.7,2.5,4,2,f,j,25,27,79.61826114,80.35373936,0,
TRUE,travel,2,22476,0.0-2.0,,,,,Harvest,222.8100002,74,100,0.98,12,0.7,0.7,2.5,4,2,f,j,25,27,75.82905077,78.74666457,0,
TRUE,travel,2,22700,0.0-2.0,,,,,Harvest,223.03,74,100,0.98,12,0.7,0.7,2.5,4,2,f,j,25,27,78.80207233,77.17173128,0,
FALSE,travel,2,22925,0.0-2.0,,,,,Harvest,223.975,74,100,0.98,12,0.7,0.7,2.5,4,2,f,j,25,27,null,75.62829665,0,
TRUE,travel,2,23148,0.0-2.0,,,,,Harvest,222.1249994,74,100,0.98,12,0.7,0.7,2.5,4,2,f,j,25,27,72.65597564,75.62829665,0,
TRUE,travel,2,23404,0.0-2.0,,,,,Harvest,255.38,74,100,0.98,12,0.7,0.7,2.5,4,2,f,j,25,27,73.45629764,74.11573072,0,
TRUE,travel,2,23596,0.0-2.0,,,,,Harvest,191.2449999,74,100,0.98,12,0.7,0.7,2.5,4,2,f,j,25,27,72.58489289,72.63341611,0,
TRUE,travel,2,23819,0.0-2.0,,,,,Harvest,223.2399993,74,100,0.98,12,0.7,0.7,2.5,4,2,f,j,25,27,70.10878594,71.18074778,0,
TRUE,travel,2,24043,0.0-2.0,,,,,Harvest,223.3600002,74,100,0.98,12,0.7,0.7,2.5,4,2,f,j,25,27,71.87649457,69.75713283,0,
TRUE,travel,2,24284,0.0-2.0,,,,,Harvest,239.4300001,74,100,0.98,12,0.7,0.7,2.5,4,2,f,j,25,27,65.95686784,68.36199017,0,
TRUE,travel,2,24508,0.0-2.0,,,,,Harvest,223.7750003,74,100,0.98,12,0.7,0.7,2.5,4,2,f,j,25,27,67.71041994,66.99475037,0,
TRUE,travel,2,24732,0.0-2.0,,,,,Harvest,222.5700002,74,100,0.98,12,0.7,0.7,2.5,4,2,f,j,25,27,67.85106354,65.65485536,0,
TRUE,travel,2,24924,0.0-2.0,,,,,Harvest,191.1899997,74,100,0.98,12,0.7,0.7,2.5,4,2,f,j,25,27,61.04170062,64.34175825,0,
,travel,2,25100,0.0-2.0,,,,,Harvest,175.1799993,70,100,0.98,12,0.7,0.7,2.5,4,2,f,j,26,39,null,,1,null
TRUE,travel,2,25275,0.0-2.0,,,,,TRAVEL,175.3750006,70,100,0.98,12,0.7,0.7,2.5,4,2,f,j,26,39,,,,
FALSE,travel,2,25275,0.0-2.0,,,,,TRAVEL,175.3750006,70,100,0.98,12,0.7,0.7,2.5,4,2,f,j,27,39,,,,
FALSE,travel,2,25451,0.0-2.0,,,,,TRAVEL,175.7350005,70,100,0.98,12,0.7,0.7,2.5,4,2,f,j,27,39,,,,
TRUE,travel,2,25627,0.0-2.0,,,,,TRAVEL,175.6549999,70,100,0.98,12,0.7,0.7,2.5,4,2,f,j,27,39,,,,
FALSE,travel,2,25627,0.0-2.0,,,,,TRAVEL,175.6549999,70,100,0.98,12,0.7,0.7,2.5,4,2,f,j,28,39,,,,
TRUE,travel,2,25803,0.0-2.0,,,,,TRAVEL,175.7199997,70,100,0.98,12,0.7,0.7,2.5,4,2,f,j,28,39,,,,
FALSE,travel,2,25803,0.0-2.0,,,,,TRAVEL,175.7199997,70,100,0.98,12,0.7,0.7,2.5,4,2,f,j,29,39,,,,
TRUE,travel,2,25963,0.0-2.0,,,,,TRAVEL,159.8450001,70,100,0.98,12,0.7,0.7,2.5,4,2,f,j,29,39,,,,
FALSE,travel,2,25963,0.0-2.0,,,,,TRAVEL,159.8450001,70,100,0.98,12,0.7,0.7,2.5,4,2,f,j,30,39,,,,
FALSE,travel,2,26139,0.0-2.0,,,,,TRAVEL,175.5099995,70,100,0.98,12,0.7,0.7,2.5,4,2,f,j,30,39,,,,
FALSE,travel,2,26299,0.0-2.0,,,,,TRAVEL,159.8899998,70,100,0.98,12,0.7,0.7,2.5,4,2,f,j,30,39,,,,
TRUE,travel,2,26459,0.0-2.0,,,,,TRAVEL,159.8349996,70,100,0.98,12,0.7,0.7,2.5,4,2,f,j,30,39,,,,
FALSE,travel,2,26459,0.0-2.0,,,,,TRAVEL,159.8349996,70,100,0.98,12,0.7,0.7,2.5,4,2,f,j,31,39,,,,
FALSE,travel,2,26651,0.0-2.0,,,,,TRAVEL,191.9449996,70,100,0.98,12,0.7,0.7,2.5,4,2,f,j,31,39,,,,
FALSE,travel,2,26811,0.0-2.0,,,,,TRAVEL,159.585,70,100,0.98,12,0.7,0.7,2.5,4,2,f,j,31,39,,,,
TRUE,travel,2,26987,0.0-2.0,,,,,TRAVEL,175.9000001,70,100,0.98,12,0.7,0.7,2.5,4,2,f,j,31,39,,,,
FALSE,travel,2,26987,0.0-2.0,,,,,TRAVEL,175.9000001,70,100,0.98,12,0.7,0.7,2.5,4,2,f,j,32,39,,,,
TRUE,travel,2,27179,0.0-2.0,,,,,TRAVEL,191.6849995,70,100,0.98,12,0.7,0.7,2.5,4,2,f,j,32,39,,,,
FALSE,travel,2,27179,0.0-2.0,,,,,TRAVEL,191.6849995,70,100,0.98,12,0.7,0.7,2.5,4,2,f,j,33,39,,,,
TRUE,travel,2,27355,0.0-2.0,,,,,TRAVEL,175.6500006,70,100,0.98,12,0.7,0.7,2.5,4,2,f,j,33,39,,,,
FALSE,travel,2,27355,0.0-2.0,,,,,TRAVEL,175.6500006,70,100,0.98,12,0.7,0.7,2.5,4,2,f,j,34,39,,,,
TRUE,travel,2,27531,0.0-2.0,,,,,TRAVEL,175.7399999,70,100,0.98,12,0.7,0.7,2.5,4,2,f,j,34,39,,,,
FALSE,travel,2,27531,0.0-2.0,,,,,TRAVEL,175.7399999,70,100,0.98,12,0.7,0.7,2.5,4,2,f,j,35,39,,,,
TRUE,travel,2,27739,0.0-2.0,,,,,TRAVEL,207.715,70,100,0.98,12,0.7,0.7,2.5,4,2,f,j,35,39,,,,
FALSE,travel,2,27739,0.0-2.0,,,,,TRAVEL,207.715,70,100,0.98,12,0.7,0.7,2.5,4,2,f,j,36,39,,,,
FALSE,travel,2,27915,0.0-2.0,,,,,TRAVEL,175.6700007,70,100,0.98,12,0.7,0.7,2.5,4,2,f,j,36,39,,,,
TRUE,travel,2,28107,0.0-2.0,,,,,TRAVEL,191.8850001,70,100,0.98,12,0.7,0.7,2.5,4,2,f,j,36,39,,,,
FALSE,travel,2,28475,0.0-2.0,,,,,Harvest,367.5499996,74,100,0.98,12,0.7,0.7,2.5,4,2,f,j,37,39,null,102.7393822,0,
TRUE,travel,2,28684,0.0-2.0,,,,,Harvest,207.9399992,74,100,0.98,12,0.7,0.7,2.5,4,2,f,j,37,39,108.0609322,102.7393822,0,
TRUE,travel,2,28860,0.0-2.0,,,,,Harvest,175.1349997,74,100,0.98,12,0.7,0.7,2.5,4,2,f,j,37,39,102.6782254,100.6845945,0,
FALSE,travel,2,29035,0.0-2.0,,,,,Harvest,175.365,74,100,0.98,12,0.7,0.7,2.5,4,2,f,j,37,39,null,98.67090264,0,
FALSE,travel,2,29228,0.0-2.0,,,,,Harvest,191.6749999,74,100,0.98,12,0.7,0.7,2.5,4,2,f,j,37,39,null,98.67090264,0,
TRUE,travel,2,29419,0.0-2.0,,,,,Harvest,191.0950001,74,100,0.98,12,0.7,0.7,2.5,4,2,f,j,37,39,102.7470968,98.67090264,0,
FALSE,travel,2,29611,0.0-2.0,,,,,Harvest,191.3899994,74,100,0.98,12,0.7,0.7,2.5,4,2,f,j,37,39,null,96.69748459,0,
TRUE,travel,2,29804,0.0-2.0,,,,,Harvest,191.7149993,74,100,0.98,12,0.7,0.7,2.5,4,2,f,j,37,39,97.05754295,96.69748459,0,
TRUE,travel,2,29964,0.0-2.0,,,,,Harvest,159.5049994,74,100,0.98,12,0.7,0.7,2.5,4,2,f,j,37,39,92.8438719,94.7635349,0,
TRUE,travel,2,30140,0.0-2.0,,,,,Harvest,175.1800003,74,100,0.98,12,0.7,0.7,2.5,4,2,f,j,37,39,96.11831022,92.8682642,0,
TRUE,travel,2,30316,0.0-2.0,,,,,Harvest,175.3949998,74,100,0.98,12,0.7,0.7,2.5,4,2,f,j,37,39,88.03130071,91.01089892,0,
FALSE,travel,2,30491,0.0-2.0,,,,,Harvest,175.3399996,74,100,0.98,12,0.7,0.7,2.5,4,2,f,j,37,39,null,89.19068094,0,
TRUE,travel,2,30700,0.0-2.0,,,,,Harvest,207.6499993,74,100,0.98,12,0.7,0.7,2.5,4,2,f,j,37,39,84.82920636,89.19068094,0,
TRUE,travel,2,30924,0.0-2.0,,,,,Harvest,223.5200005,74,100,0.98,12,0.7,0.7,2.5,4,2,f,j,37,39,84.34128524,87.40686732,0,
FALSE,travel,2,31115,0.0-2.0,,,,,Harvest,191.1800001,74,100,0.98,12,0.7,0.7,2.5,4,2,f,j,37,39,null,85.65872997,0,
TRUE,travel,2,31292,0.0-2.0,,,,,Harvest,175.605,74,100,0.98,12,0.7,0.7,2.5,4,2,f,j,37,39,86.58202258,85.65872997,0,
TRUE,travel,2,31500,0.0-2.0,,,,,Harvest,207.2000001,74,100,0.98,12,0.7,0.7,2.5,4,2,f,j,37,39,80.06401997,83.94555537,0,
TRUE,travel,2,31708,0.0-2.0,,,,,Harvest,207.2000001,74,100,0.98,12,0.7,0.7,2.5,4,2,f,j,37,39,84.92182452,82.26664427,0,
TRUE,travel,2,31899,0.0-2.0,,,,,Harvest,191.2499992,74,100,0.98,12,0.7,0.7,2.5,4,2,f,j,37,39,84.5788456,80.62131138,0,
FALSE,travel,2,32139,0.0-2.0,,,,,Harvest,239.4249998,74,100,0.98,12,0.7,0.7,2.5,4,2,f,j,37,39,null,79.00888515,0,
TRUE,travel,2,32365,0.0-2.0,,,,,Harvest,224.2000001,74,100,0.98,12,0.7,0.7,2.5,4,2,f,j,37,39,77.12297584,79.00888515,0,
TRUE,travel,2,32587,0.0-2.0,,,,,Harvest,221.6000007,74,100,0.98,12,0.7,0.7,2.5,4,2,f,j,37,39,77.03067083,77.42870745,0,
FALSE,travel,2,32795,0.0-2.0,,,,,Harvest,207.5749999,74,100,0.98,12,0.7,0.7,2.5,4,2,f,j,37,39,null,75.8801333,0,
TRUE,travel,2,32971,0.0-2.0,,,,,Harvest,175.7300003,74,100,0.98,12,0.7,0.7,2.5,4,2,f,j,37,39,76.35712051,75.8801333,0,
TRUE,travel,2,33163,0.0-2.0,,,,,Harvest,191.3599996,74,100,0.98,12,0.7,0.7,2.5,4,2,f,j,37,39,74.6051099,74.36253063,0,
TRUE,travel,2,33355,0.0-2.0,,,,,Harvest,191.3449997,74,100,0.98,12,0.7,0.7,2.5,4,2,f,j,37,39,77.51923124,72.87528002,0,
FALSE,travel,2,33547,0.0-2.0,,,,,Harvest,191.4250003,74,100,0.98,12,0.7,0.7,2.5,4,2,f,j,37,39,null,71.41777442,0,
TRUE,travel,2,33755,0.0-2.0,,,,,Harvest,207.6399997,74,100,0.98,12,0.7,0.7,2.5,4,2,f,j,37,39,72.6669635,71.41777442,0,
TRUE,travel,2,33947,0.0-2.0,,,,,Harvest,191.3900003,74,100,0.98,12,0.7,0.7,2.5,4,2,f,j,37,39,72.01055556,69.98941893,0,
TRUE,travel,2,34139,0.0-2.0,,,,,Harvest,191.3000001,74,100,0.98,12,0.7,0.7,2.5,4,2,f,j,37,39,63.30736183,68.58963055,0,
FALSE,travel,2,34347,0.0-2.0,,,,,Harvest,207.4100003,74,100,0.98,12,0.7,0.7,2.5,4,2,f,j,37,39,null,67.21783794,0,
TRUE,travel,2,34572,0.0-2.0,,,,,Harvest,223.77,74,100,0.98,12,0.7,0.7,2.5,4,2,f,j,37,39,69.48895496,67.21783794,0,
FALSE,travel,2,34779,0.0-2.0,,,,,Harvest,207.2999999,74,100,0.98,12,0.7,0.7,2.5,4,2,f,j,37,39,null,65.87348118,0,
FALSE,travel,2,35003,0.0-2.0,,,,,Harvest,223.6949997,74,100,0.98,12,0.7,0.7,2.5,4,2,f,j,37,39,null,65.87348118,0,
TRUE,travel,2,35212,0.0-2.0,,,,,Harvest,207.7550003,74,100,0.98,12,0.7,0.7,2.5,4,2,f,j,37,39,64.46230454,65.87348118,0,
TRUE,travel,2,35420,0.0-2.0,,,,,Harvest,207.3050002,74,100,0.98,12,0.7,0.7,2.5,4,2,f,j,37,39,64.19197761,64.55601156,0,
TRUE,travel,2,35628,0.0-2.0,,,,,Harvest,207.0749998,74,100,0.98,12,0.7,0.7,2.5,4,2,f,j,37,39,60.29855061,63.26489133,0,
TRUE,travel,2,35820,0.0-2.0,,,,,Harvest,189.9550008,74,100,0.98,12,0.7,0.7,2.5,4,2,f,j,37,39,61.5445296,61.9995935,0,
TRUE,travel,2,36076,0.0-2.0,,,,,Harvest,255.38,74,100,0.98,12,0.7,0.7,2.5,4,2,f,j,37,39,57.86087585,60.75960163,0,
TRUE,travel,2,36300,0.0-2.0,,,,,Harvest,223.3500006,74,100,0.98,12,0.7,0.7,2.5,4,2,f,j,37,39,60.32882757,59.5444096,0,
TRUE,travel,2,36508,0.0-2.0,,,,,Harvest,207.3600003,74,100,0.98,12,0.7,0.7,2.5,4,2,f,j,37,39,54.75528623,58.35352141,0,
,travel,2,36699,0.0-2.0,,,,,Harvest,191.2749996,70,100,0.98,12,0.7,0.7,2.5,4,2,f,j,38,51,null,,1,null
FALSE,travel,2,36875,0.0-2.0,,,,,TRAVEL,175.4449997,70,100,0.98,12,0.7,0.7,2.5,4,2,f,j,38,51,,,,
TRUE,travel,2,37051,0.0-2.0,,,,,TRAVEL,176.1749992,70,100,0.98,12,0.7,0.7,2.5,4,2,f,j,38,51,,,,
FALSE,travel,2,37052,0.0-2.0,,,,,TRAVEL,176.1749992,70,100,0.98,12,0.7,0.7,2.5,4,2,f,j,39,51,,,,
TRUE,travel,2,37227,0.0-2.0,,,,,TRAVEL,175.5049992,70,100,0.98,12,0.7,0.7,2.5,4,2,f,j,39,51,,,,
FALSE,travel,2,37227,0.0-2.0,,,,,TRAVEL,175.5049992,70,100,0.98,12,0.7,0.7,2.5,4,2,f,j,40,51,,,,
TRUE,travel,2,37387,0.0-2.0,,,,,TRAVEL,159.5900003,70,100,0.98,12,0.7,0.7,2.5,4,2,f,j,40,51,,,,
FALSE,travel,2,37387,0.0-2.0,,,,,TRAVEL,159.5900003,70,100,0.98,12,0.7,0.7,2.5,4,2,f,j,41,51,,,,
TRUE,travel,2,37564,0.0-2.0,,,,,TRAVEL,175.6349998,70,100,0.98,12,0.7,0.7,2.5,4,2,f,j,41,51,,,,
FALSE,travel,2,37564,0.0-2.0,,,,,TRAVEL,175.6349998,70,100,0.98,12,0.7,0.7,2.5,4,2,f,j,42,51,,,,
FALSE,travel,2,37739,0.0-2.0,,,,,TRAVEL,175.0950003,70,100,0.98,12,0.7,0.7,2.5,4,2,f,j,42,51,,,,
TRUE,travel,2,37915,0.0-2.0,,,,,TRAVEL,175.9799998,70,100,0.98,12,0.7,0.7,2.5,4,2,f,j,42,51,,,,
FALSE,travel,2,37915,0.0-2.0,,,,,TRAVEL,175.9799998,70,100,0.98,12,0.7,0.7,2.5,4,2,f,j,43,51,,,,
TRUE,travel,2,38076,0.0-2.0,,,,,TRAVEL,160.4150003,70,100,0.98,12,0.7,0.7,2.5,4,2,f,j,43,51,,,,
FALSE,travel,2,38076,0.0-2.0,,,,,TRAVEL,160.4150003,70,100,0.98,12,0.7,0.7,2.5,4,2,f,j,44,51,,,,
TRUE,travel,2,38251,0.0-2.0,,,,,TRAVEL,174.8749996,70,100,0.98,12,0.7,0.7,2.5,4,2,f,j,44,51,,,,
FALSE,travel,2,38251,0.0-2.0,,,,,TRAVEL,174.8749996,70,100,0.98,12,0.7,0.7,2.5,4,2,f,j,45,51,,,,
TRUE,travel,2,38427,0.0-2.0,,,,,TRAVEL,175.7100001,70,100,0.98,12,0.7,0.7,2.5,4,2,f,j,45,51,,,,
FALSE,travel,2,38427,0.0-2.0,,,,,TRAVEL,175.7100001,70,100,0.98,12,0.7,0.7,2.5,4,2,f,j,46,51,,,,
TRUE,travel,2,38603,0.0-2.0,,,,,TRAVEL,175.6199999,70,100,0.98,12,0.7,0.7,2.5,4,2,f,j,46,51,,,,
FALSE,travel,2,38603,0.0-2.0,,,,,TRAVEL,175.6199999,70,100,0.98,12,0.7,0.7,2.5,4,2,f,j,47,51,,,,
TRUE,travel,2,38779,0.0-2.0,,,,,TRAVEL,175.7049998,70,100,0.98,12,0.7,0.7,2.5,4,2,f,j,47,51,,,,
FALSE,travel,2,38779,0.0-2.0,,,,,TRAVEL,175.7049998,70,100,0.98,12,0.7,0.7,2.5,4,2,f,j,48,51,,,,
FALSE,travel,2,38955,0.0-2.0,,,,,TRAVEL,175.7800002,70,100,0.98,12,0.7,0.7,2.5,4,2,f,j,48,51,,,,
FALSE,travel,2,39115,0.0-2.0,,,,,TRAVEL,159.7500006,70,100,0.98,12,0.7,0.7,2.5,4,2,f,j,48,51,,,,
TRUE,travel,2,39307,0.0-2.0,,,,,TRAVEL,191.9100005,70,100,0.98,12,0.7,0.7,2.5,4,2,f,j,48,51,,,,
FALSE,travel,2,39659,0.0-2.0,,,,,Harvest,351.5400002,74,100,0.98,12,0.7,0.7,2.5,4,2,f,j,49,51,null,99.20790741,0,
FALSE,travel,2,39851,0.0-2.0,,,,,Harvest,191.6649994,74,100,0.98,12,0.7,0.7,2.5,4,2,f,j,49,51,null,99.20790741,0,
TRUE,travel,2,40044,0.0-2.0,,,,,Harvest,191.7749997,74,100,0.98,12,0.7,0.7,2.5,4,2,f,j,49,51,94.3340957,99.20790741,0,
FALSE,travel,2,40203,0.0-2.0,,,,,Harvest,159.2350006,74,100,0.98,12,0.7,0.7,2.5,4,2,f,j,49,51,null,97.22374926,0,
TRUE,travel,2,40380,0.0-2.0,,,,,Harvest,175.8549996,74,100,0.98,12,0.7,0.7,2.5,4,2,f,j,49,51,99.18055529,97.22374926,0,
TRUE,travel,2,40556,0.0-2.0,,,,,Harvest,175.365,74,100,0.98,12,0.7,0.7,2.5,4,2,f,j,49,51,93.85590528,95.27927428,0,
TRUE,travel,2,40731,0.0-2.0,,,,,Harvest,175.2149994,74,100,0.98,12,0.7,0.7,2.5,4,2,f,j,49,51,95.65894373,93.37368879,0,
FALSE,travel,2,40891,0.0-2.0,,,,,Harvest,159.4700003,74,100,0.98,12,0.7,0.7,2.5,4,2,f,j,49,51,null,91.50621502,0,
TRUE,travel,2,41068,0.0-2.0,,,,,Harvest,175.7549997,74,100,0.98,12,0.7,0.7,2.5,4,2,f,j,49,51,93.44993277,91.50621502,0,
TRUE,travel,2,41227,0.0-2.0,,,,,Harvest,159.3249999,74,100,0.98,12,0.7,0.7,2.5,4,2,f,j,49,51,90.98503875,89.67609072,0,
TRUE,travel,2,41388,0.0-2.0,,,,,Harvest,159.9399997,74,100,0.98,12,0.7,0.7,2.5,4,2,f,j,49,51,88.06890219,87.8825689,0,
FALSE,travel,2,41563,0.0-2.0,,,,,Harvest,175.1099993,74,100,0.98,12,0.7,0.7,2.5,4,2,f,j,49,51,null,86.12491752,0,
TRUE,travel,2,41740,0.0-2.0,,,,,Harvest,175.5949995,74,100,0.98,12,0.7,0.7,2.5,4,2,f,j,49,51,89.44100319,86.12491752,0,
TRUE,travel,2,41884,0.0-2.0,,,,,Harvest,143.3950001,74,100,0.98,12,0.7,0.7,2.5,4,2,f,j,49,51,84.20848538,84.40241917,0,
FALSE,travel,2,42059,0.0-2.0,,,,,Harvest,175.4000001,74,100,0.98,12,0.7,0.7,2.5,4,2,f,j,49,51,null,82.71437079,0,
FALSE,travel,2,42251,0.0-2.0,,,,,Harvest,191.6350005,74,100,0.98,12,0.7,0.7,2.5,4,2,f,j,49,51,null,82.71437079,0,
TRUE,travel,2,42428,0.0-2.0,,,,,Harvest,175.7400008,74,100,0.98,12,0.7,0.7,2.5,4,2,f,j,49,51,82.73400487,82.71437079,0,
TRUE,travel,2,42620,0.0-2.0,,,,,Harvest,191.3599996,74,100,0.98,12,0.7,0.7,2.5,4,2,f,j,49,51,82.4840521,81.06008337,0,
TRUE,travel,2,42812,0.0-2.0,,,,,Harvest,191.3100006,74,100,0.98,12,0.7,0.7,2.5,4,2,f,j,49,51,76.01652145,79.43888171,0,
TRUE,travel,2,43005,0.0-2.0,,,,,Harvest,191.2850002,74,100,0.98,12,0.7,0.7,2.5,4,2,f,j,49,51,79.59207206,77.85010407,0,
TRUE,travel,2,43195,0.0-2.0,,,,,Harvest,189.7700001,74,100,0.98,12,0.7,0.7,2.5,4,2,f,j,49,51,73.82226908,76.29310199,0,
TRUE,travel,2,43388,0.0-2.0,,,,,Harvest,191.5350007,74,100,0.98,12,0.7,0.7,2.5,4,2,f,j,49,51,75.86757534,74.76723995,0,
FALSE,travel,2,43659,0.0-2.0,,,,,Harvest,271.2349994,74,100,0.98,12,0.7,0.7,2.5,4,2,f,j,49,51,null,73.27189515,0,
FALSE,travel,2,43883,0.0-2.0,,,,,Harvest,223.7300007,74,100,0.98,12,0.7,0.7,2.5,4,2,f,j,49,51,null,73.27189515,0,
TRUE,travel,2,44091,0.0-2.0,,,,,Harvest,207.6199995,74,100,0.98,12,0.7,0.7,2.5,4,2,f,j,49,51,75.69715352,73.27189515,0,
TRUE,travel,2,44284,0.0-2.0,,,,,Harvest,191.4250003,74,100,0.98,12,0.7,0.7,2.5,4,2,f,j,49,51,74.65805201,71.80645725,0,
TRUE,travel,2,44443,0.0-2.0,,,,,Harvest,159.2550008,74,100,0.98,12,0.7,0.7,2.5,4,2,f,j,49,51,70.88538893,70.3703281,0,
TRUE,travel,2,44620,0.0-2.0,,,,,Harvest,175.76,74,100,0.98,12,0.7,0.7,2.5,4,2,f,j,49,51,70.24398945,68.96292154,0,
TRUE,travel,2,44763,0.0-2.0,,,,,Harvest,142.9700004,74,100,0.98,12,0.7,0.7,2.5,4,2,f,j,49,51,66.57151302,67.58366311,0,
FALSE,travel,2,44924,0.0-2.0,,,,,Harvest,160.1399994,74,100,0.98,12,0.7,0.7,2.5,4,2,f,j,49,51,null,66.23198985,0,
,travel,2,45051,0.0-2.0,,,,,Harvest,126.8949993,70,100,0.98,12,0.7,0.7,2.5,4,2,f,j,50,63,null,,1,null
FALSE,travel,2,45243,0.0-2.0,,,,,TRAVEL,191.5800003,70,100,0.98,12,0.7,0.7,2.5,4,2,f,j,50,63,,,,
TRUE,travel,2,45403,0.0-2.0,,,,,TRAVEL,159.7750001,70,100,0.98,12,0.7,0.7,2.5,4,2,f,j,50,63,,,,
FALSE,travel,2,45403,0.0-2.0,,,,,TRAVEL,159.7750001,70,100,0.98,12,0.7,0.7,2.5,4,2,f,j,51,63,,,,
TRUE,travel,2,45563,0.0-2.0,,,,,TRAVEL,159.6900001,70,100,0.98,12,0.7,0.7,2.5,4,2,f,j,51,63,,,,
FALSE,travel,2,45563,0.0-2.0,,,,,TRAVEL,159.6900001,70,100,0.98,12,0.7,0.7,2.5,4,2,f,j,52,63,,,,
FALSE,travel,2,45723,0.0-2.0,,,,,TRAVEL,159.7250002,70,100,0.98,12,0.7,0.7,2.5,4,2,f,j,52,63,,,,
TRUE,travel,2,45883,0.0-2.0,,,,,TRAVEL,159.7700007,70,100,0.98,12,0.7,0.7,2.5,4,2,f,j,52,63,,,,
FALSE,travel,2,45883,0.0-2.0,,,,,TRAVEL,159.7700007,70,100,0.98,12,0.7,0.7,2.5,4,2,f,j,53,63,,,,
TRUE,travel,2,46059,0.0-2.0,,,,,TRAVEL,175.7699996,70,100,0.98,12,0.7,0.7,2.5,4,2,f,j,53,63,,,,
FALSE,travel,2,46059,0.0-2.0,,,,,TRAVEL,175.7699996,70,100,0.98,12,0.7,0.7,2.5,4,2,f,j,54,63,,,,
TRUE,travel,2,46235,0.0-2.0,,,,,TRAVEL,175.7150004,70,100,0.98,12,0.7,0.7,2.5,4,2,f,j,54,63,,,,
FALSE,travel,2,46235,0.0-2.0,,,,,TRAVEL,175.7150004,70,100,0.98,12,0.7,0.7,2.5,4,2,f,j,55,63,,,,
TRUE,travel,2,46411,0.0-2.0,,,,,TRAVEL,175.76,70,100,0.98,12,0.7,0.7,2.5,4,2,f,j,55,63,,,,
FALSE,travel,2,46411,0.0-2.0,,,,,TRAVEL,175.76,70,100,0.98,12,0.7,0.7,2.5,4,2,f,j,56,63,,,,
TRUE,travel,2,46619,0.0-2.0,,,,,TRAVEL,207.9250002,70,100,0.98,12,0.7,0.7,2.5,4,2,f,j,56,63,,,,
FALSE,travel,2,46619,0.0-2.0,,,,,TRAVEL,207.9250002,70,100,0.98,12,0.7,0.7,2.5,4,2,f,j,57,63,,,,
FALSE,travel,2,46779,0.0-2.0,,,,,TRAVEL,159.4799999,70,100,0.98,12,0.7,0.7,2.5,4,2,f,j,57,63,,,,
FALSE,travel,2,46955,0.0-2.0,,,,,TRAVEL,175.88,70,100,0.98,12,0.7,0.7,2.5,4,2,f,j,57,63,,,,
TRUE,travel,2,47131,0.0-2.0,,,,,TRAVEL,175.8049997,70,100,0.98,12,0.7,0.7,2.5,4,2,f,j,57,63,,,,
FALSE,travel,2,47131,0.0-2.0,,,,,TRAVEL,175.8049997,70,100,0.98,12,0.7,0.7,2.5,4,2,f,j,58,63,,,,
TRUE,travel,2,47339,0.0-2.0,,,,,TRAVEL,207.6300001,70,100,0.98,12,0.7,0.7,2.5,4,2,f,j,58,63,,,,
FALSE,travel,2,47339,0.0-2.0,,,,,TRAVEL,207.6300001,70,100,0.98,12,0.7,0.7,2.5,4,2,f,j,59,63,,,,
TRUE,travel,2,47515,0.0-2.0,,,,,TRAVEL,175.8150002,70,100,0.98,12,0.7,0.7,2.5,4,2,f,j,59,63,,,,
FALSE,travel,2,47515,0.0-2.0,,,,,TRAVEL,175.8150002,70,100,0.98,12,0.7,0.7,2.5,4,2,f,j,60,63,,,,
TRUE,travel,2,47691,0.0-2.0,,,,,TRAVEL,175.6999996,70,100,0.98,12,0.7,0.7,2.5,4,2,f,j,60,63,,,,
FALSE,travel,2,47979,0.0-2.0,,,,,Harvest,287.2749995,74,100,0.98,12,0.7,0.7,2.5,4,2,f,j,61,63,null,98.676728,0,
TRUE,travel,2,48155,0.0-2.0,,,,,Harvest,175.7850004,74,100,0.98,12,0.7,0.7,2.5,4,2,f,j,61,63,100.579701,98.676728,0,
TRUE,travel,2,48331,0.0-2.0,,,,,Harvest,175.3599998,74,100,0.98,12,0.7,0.7,2.5,4,2,f,j,61,63,93.72141696,96.70319344,0,
TRUE,travel,2,48507,0.0-2.0,,,,,Harvest,175.3350003,74,100,0.98,12,0.7,0.7,2.5,4,2,f,j,61,63,94.18000416,94.76912957,0,
TRUE,travel,2,48685,0.0-2.0,,,,,Harvest,175.4449997,74,100,0.98,12,0.7,0.7,2.5,4,2,f,j,61,63,90.57244455,92.87374698,0,
TRUE,travel,2,48859,0.0-2.0,,,,,Harvest,174.0600001,74,100,0.98,12,0.7,0.7,2.5,4,2,f,j,61,63,87.9456508,91.01627204,0,
TRUE,travel,2,49019,0.0-2.0,,,,,Harvest,159.4099998,74,100,0.98,12,0.7,0.7,2.5,4,2,f,j,61,63,93.30698729,89.1959466,0,
TRUE,travel,2,49195,0.0-2.0,,,,,Harvest,175.3600007,74,100,0.98,12,0.7,0.7,2.5,4,2,f,j,61,63,84.65477235,87.41202767,0,
TRUE,travel,2,49387,0.0-2.0,,,,,Harvest,191.7049997,74,100,0.98,12,0.7,0.7,2.5,4,2,f,j,61,63,84.69107103,85.66378711,0,
FALSE,travel,2,49579,0.0-2.0,,,,,Harvest,191.3149999,74,100,0.98,12,0.7,0.7,2.5,4,2,f,j,61,63,null,83.95051137,0,
TRUE,travel,2,49771,0.0-2.0,,,,,Harvest,191.7899996,74,100,0.98,12,0.7,0.7,2.5,4,2,f,j,61,63,87.96249522,83.95051137,0,
TRUE,travel,2,49964,0.0-2.0,,,,,Harvest,191.4299997,74,100,0.98,12,0.7,0.7,2.5,4,2,f,j,61,63,82.10159088,82.27150114,0,
FALSE,travel,2,50139,0.0-2.0,,,,,Harvest,175.3400005,74,100,0.98,12,0.7,0.7,2.5,4,2,f,j,61,63,null,80.62607112,0,
TRUE,travel,2,50315,0.0-2.0,,,,,Harvest,175.6149996,74,100,0.98,12,0.7,0.7,2.5,4,2,f,j,61,63,75.42585535,80.62607112,0,
FALSE,travel,2,50507,0.0-2.0,,,,,Harvest,191.4950004,74,100,0.98,12,0.7,0.7,2.5,4,2,f,j,61,63,null,79.0135497,0,
TRUE,travel,2,50668,0.0-2.0,,,,,Harvest,159.8749999,74,100,0.98,12,0.7,0.7,2.5,4,2,f,j,61,63,77.58434914,79.0135497,0,
TRUE,travel,2,50827,0.0-2.0,,,,,Harvest,159.1449995,74,100,0.98,12,0.7,0.7,2.5,4,2,f,j,61,63,80.35503624,77.4332787,0,
TRUE,travel,2,51004,0.0-2.0,,,,,Harvest,175.4749995,74,100,0.98,12,0.7,0.7,2.5,4,2,f,j,61,63,77.69950964,75.88461313,0,
FALSE,travel,2,51195,0.0-2.0,,,,,Harvest,190.7649999,74,100,0.98,12,0.7,0.7,2.5,4,2,f,j,61,63,null,74.36692087,0,
FALSE,travel,2,51387,0.0-2.0,,,,,Harvest,191.5999996,74,100,0.98,12,0.7,0.7,2.5,4,2,f,j,61,63,null,74.36692087,0,
TRUE,travel,2,51564,0.0-2.0,,,,,Harvest,175.7199997,74,100,0.98,12,0.7,0.7,2.5,4,2,f,j,61,63,70.7989099,74.36692087,0,
TRUE,travel,2,51756,0.0-2.0,,,,,Harvest,191.2899995,74,100,0.98,12,0.7,0.7,2.5,4,2,f,j,61,63,70.1410679,72.87958245,0,
FALSE,travel,2,51948,0.0-2.0,,,,,Harvest,191.7899996,74,100,0.98,12,0.7,0.7,2.5,4,2,f,j,61,63,null,71.4219908,0,
FALSE,travel,2,52139,0.0-2.0,,,,,Harvest,191.3000001,74,100,0.98,12,0.7,0.7,2.5,4,2,f,j,61,63,null,71.4219908,0,
TRUE,travel,2,52299,0.0-2.0,,,,,Harvest,159.6650006,74,100,0.98,12,0.7,0.7,2.5,4,2,f,j,61,63,74.55902131,71.4219908,0,
TRUE,travel,2,52491,0.0-2.0,,,,,Harvest,191.3649999,74,100,0.98,12,0.7,0.7,2.5,4,2,f,j,61,63,68.13588892,69.99355099,0,
TRUE,travel,2,52684,0.0-2.0,,,,,Harvest,191.5000007,74,100,0.98,12,0.7,0.7,2.5,4,2,f,j,61,63,70.26811946,68.59367997,0,
TRUE,travel,2,52843,0.0-2.0,,,,,Harvest,159.2349997,74,100,0.98,12,0.7,0.7,2.5,4,2,f,j,61,63,66.72691141,67.22180637,0,
TRUE,travel,2,53004,0.0-2.0,,,,,Harvest,159.4400005,74,100,0.98,12,0.7,0.7,2.5,4,2,f,j,61,63,61.86158165,65.87737024,0,
,travel,2,53100,0.0-2.0,,,,,Harvest,95.99500056,70,100,0.98,12,0.7,0.7,2.5,4,2,f,j,62,75,null,,1,null
TRUE,travel,2,53275,0.0-2.0,,,,,TRAVEL,174.8350002,70,100,0.98,12,0.7,0.7,2.5,4,2,f,j,62,75,,,,
FALSE,travel,2,53275,0.0-2.0,,,,,TRAVEL,174.8350002,70,100,0.98,12,0.7,0.7,2.5,4,2,f,j,63,75,,,,
TRUE,travel,2,53451,0.0-2.0,,,,,TRAVEL,175.6549999,70,100,0.98,12,0.7,0.7,2.5,4,2,f,j,63,75,,,,
FALSE,travel,2,53451,0.0-2.0,,,,,TRAVEL,175.6549999,70,100,0.98,12,0.7,0.7,2.5,4,2,f,j,64,75,,,,
FALSE,travel,2,53611,0.0-2.0,,,,,TRAVEL,159.7849997,70,100,0.98,12,0.7,0.7,2.5,4,2,f,j,64,75,,,,
TRUE,travel,2,53771,0.0-2.0,,,,,TRAVEL,159.7999996,70,100,0.98,12,0.7,0.7,2.5,4,2,f,j,64,75,,,,
FALSE,travel,2,53771,0.0-2.0,,,,,TRAVEL,159.7999996,70,100,0.98,12,0.7,0.7,2.5,4,2,f,j,65,75,,,,
TRUE,travel,2,53963,0.0-2.0,,,,,TRAVEL,191.7399997,70,100,0.98,12,0.7,0.7,2.5,4,2,f,j,65,75,,,,
FALSE,travel,2,53963,0.0-2.0,,,,,TRAVEL,191.7399997,70,100,0.98,12,0.7,0.7,2.5,4,2,f,j,66,75,,,,
TRUE,travel,2,54155,0.0-2.0,,,,,TRAVEL,191.7199995,70,100,0.98,12,0.7,0.7,2.5,4,2,f,j,66,75,,,,
FALSE,travel,2,54155,0.0-2.0,,,,,TRAVEL,191.7199995,70,100,0.98,12,0.7,0.7,2.5,4,2,f,j,67,75,,,,
TRUE,travel,2,54315,0.0-2.0,,,,,TRAVEL,159.4399996,70,100,0.98,12,0.7,0.7,2.5,4,2,f,j,67,75,,,,
FALSE,travel,2,54315,0.0-2.0,,,,,TRAVEL,159.4399996,70,100,0.98,12,0.7,0.7,2.5,4,2,f,j,68,75,,,,
TRUE,travel,2,54491,0.0-2.0,,,,,TRAVEL,175.9000001,70,100,0.98,12,0.7,0.7,2.5,4,2,f,j,68,75,,,,
FALSE,travel,2,54491,0.0-2.0,,,,,TRAVEL,175.9000001,70,100,0.98,12,0.7,0.7,2.5,4,2,f,j,69,75,,,,
TRUE,travel,2,54667,0.0-2.0,,,,,TRAVEL,175.4600005,70,100,0.98,12,0.7,0.7,2.5,4,2,f,j,69,75,,,,
FALSE,travel,2,54667,0.0-2.0,,,,,TRAVEL,175.4600005,70,100,0.98,12,0.7,0.7,2.5,4,2,f,j,70,75,,,,
TRUE,travel,2,54859,0.0-2.0,,,,,TRAVEL,191.7400006,70,100,0.98,12,0.7,0.7,2.5,4,2,f,j,70,75,,,,
FALSE,travel,2,54859,0.0-2.0,,,,,TRAVEL,191.7400006,70,100,0.98,12,0.7,0.7,2.5,4,2,f,j,71,75,,,,
TRUE,travel,2,55067,0.0-2.0,,,,,TRAVEL,207.6749997,70,100,0.98,12,0.7,0.7,2.5,4,2,f,j,71,75,,,,
FALSE,travel,2,55067,0.0-2.0,,,,,TRAVEL,207.6749997,70,100,0.98,12,0.7,0.7,2.5,4,2,f,j,72,75,,,,
TRUE,travel,2,55259,0.0-2.0,,,,,TRAVEL,191.7300001,70,100,0.98,12,0.7,0.7,2.5,4,2,f,j,72,75,,,,
TRUE,travel,2,55612,0.0-2.0,,,,,Harvest,351.5400002,74,100,0.98,12,0.7,0.7,2.5,4,2,f,j,73,75,99.5216,99.94959592,0,
TRUE,travel,2,55788,0.0-2.0,,,,,Harvest,175.3349993,74,100,0.98,12,0.7,0.7,2.5,4,2,f,j,73,75,95.33713357,97.950604,0,
TRUE,travel,2,55980,0.0-2.0,,,,,Harvest,191.3550003,74,100,0.98,12,0.7,0.7,2.5,4,2,f,j,73,75,96.03353807,95.99159192,0,
TRUE,travel,2,56140,0.0-2.0,,,,,Harvest,159.3649993,74,100,0.98,12,0.7,0.7,2.5,4,2,f,j,73,75,90.43964581,94.07176008,0,
TRUE,travel,2,56316,0.0-2.0,,,,,Harvest,175.3599998,74,100,0.98,12,0.7,0.7,2.5,4,2,f,j,73,75,93.96057823,92.19032488,0,
TRUE,travel,2,56507,0.0-2.0,,,,,Harvest,191.3449997,74,100,0.98,12,0.7,0.7,2.5,4,2,f,j,73,75,91.9936956,90.34651838,0,
TRUE,travel,2,56685,0.0-2.0,,,,,Harvest,175.45,74,100,0.98,12,0.7,0.7,2.5,4,2,f,j,73,75,92.13908894,88.53958801,0,
TRUE,travel,2,56860,0.0-2.0,,,,,Harvest,174.0600001,74,100,0.98,12,0.7,0.7,2.5,4,2,f,j,73,75,88.67849421,86.76879625,0,
FALSE,travel,2,57035,0.0-2.0,,,,,Harvest,175.3200004,74,100,0.98,12,0.7,0.7,2.5,4,2,f,j,73,75,null,85.03342033,0,
FALSE,travel,2,57211,0.0-2.0,,,,,Harvest,175.7749999,74,100,0.98,12,0.7,0.7,2.5,4,2,f,j,73,75,null,85.03342033,0,
TRUE,travel,2,57404,0.0-2.0,,,,,Harvest,191.7949999,74,100,0.98,12,0.7,0.7,2.5,4,2,f,j,73,75,89.50924832,85.03342033,0,
TRUE,travel,2,57580,0.0-2.0,,,,,Harvest,175.3200004,74,100,0.98,12,0.7,0.7,2.5,4,2,f,j,73,75,78.94282917,83.33275192,0,
TRUE,travel,2,57740,0.0-2.0,,,,,Harvest,159.3350004,74,100,0.98,12,0.7,0.7,2.5,4,2,f,j,73,75,84.02000732,81.66609688,0,
FALSE,travel,2,57915,0.0-2.0,,,,,Harvest,175.3099998,74,100,0.98,12,0.7,0.7,2.5,4,2,f,j,73,75,null,80.03277495,0,
FALSE,travel,2,58091,0.0-2.0,,,,,Harvest,175.6500006,74,100,0.98,12,0.7,0.7,2.5,4,2,f,j,73,75,null,80.03277495,0,
TRUE,travel,2,58284,0.0-2.0,,,,,Harvest,191.7899996,74,100,0.98,12,0.7,0.7,2.5,4,2,f,j,73,75,75.46431577,80.03277495,0,
TRUE,travel,2,58443,0.0-2.0,,,,,Harvest,159.2899999,74,100,0.98,12,0.7,0.7,2.5,4,2,f,j,73,75,77.65531164,78.43211945,0,
TRUE,travel,2,58620,0.0-2.0,,,,,Harvest,176.1450004,74,100,0.98,12,0.7,0.7,2.5,4,2,f,j,73,75,74.33874446,76.86347706,0,
FALSE,travel,2,58763,0.0-2.0,,,,,Harvest,142.6499998,74,100,0.98,12,0.7,0.7,2.5,4,2,f,j,73,75,null,75.32620752,0,
TRUE,travel,2,58956,0.0-2.0,,,,,Harvest,191.8299999,74,100,0.98,12,0.7,0.7,2.5,4,2,f,j,73,75,75.54252845,75.32620752,0,
FALSE,travel,2,59147,0.0-2.0,,,,,Harvest,191.2250007,74,100,0.98,12,0.7,0.7,2.5,4,2,f,j,73,75,null,73.81968337,0,
TRUE,travel,2,59292,0.0-2.0,,,,,Harvest,143.7050002,74,100,0.98,12,0.7,0.7,2.5,4,2,f,j,73,75,73.88273738,73.81968337,0,
TRUE,travel,2,59469,0.0-2.0,,,,,Harvest,175.3400005,74,100,0.98,12,0.7,0.7,2.5,4,2,f,j,73,75,75.21682021,72.3432897,0,
FALSE,travel,2,59627,0.0-2.0,,,,,Harvest,158.3150001,74,100,0.98,12,0.7,0.7,2.5,4,2,f,j,73,75,null,70.8964239,0,
FALSE,travel,2,59819,0.0-2.0,,,,,Harvest,191.7399997,74,100,0.98,12,0.7,0.7,2.5,4,2,f,j,73,75,null,70.8964239,0,
TRUE,travel,2,59995,0.0-2.0,,,,,Harvest,175.6699998,74,100,0.98,12,0.7,0.7,2.5,4,2,f,j,73,75,70.17293797,70.8964239,0,
FALSE,travel,2,60155,0.0-2.0,,,,,Harvest,159.3549997,74,100,0.98,12,0.7,0.7,2.5,4,2,f,j,73,75,null,69.47849543,0,
TRUE,travel,2,60331,0.0-2.0,,,,,Harvest,175.7599991,74,100,0.98,12,0.7,0.7,2.5,4,2,f,j,73,75,68.46198377,69.47849543,0,
TRUE,travel,2,60523,0.0-2.0,,,,,Harvest,191.5850006,74,100,0.98,12,0.7,0.7,2.5,4,2,f,j,73,75,68.68493664,68.08892552,0,
FALSE,travel,2,60683,0.0-2.0,,,,,Harvest,159.0700001,74,100,0.98,12,0.7,0.7,2.5,4,2,f,j,73,75,null,66.72714701,0,
TRUE,travel,2,60875,0.0-2.0,,,,,Harvest,191.7100009,74,100,0.98,12,0.7,0.7,2.5,4,2,f,j,73,75,66.01638963,66.72714701,0,
FALSE,travel,2,61067,0.0-2.0,,,,,Harvest,191.3649999,74,100,0.98,12,0.7,0.7,2.5,4,2,f,j,73,75,null,65.39260407,0,
,travel,2,61163,0.0-2.0,,,,,Harvest,95.74500006,70,100,0.98,12,0.7,0.7,2.5,4,2,f,j,74,87,null,,1,null
TRUE,travel,2,61338,0.0-2.0,,,,,TRAVEL,175.3350003,70,100,0.98,12,0.7,0.7,2.5,4,2,f,j,74,87,,,,
FALSE,travel,2,61339,0.0-2.0,,,,,TRAVEL,175.3350003,70,100,0.98,12,0.7,0.7,2.5,4,2,f,j,75,87,,,,
TRUE,travel,2,61498,0.0-2.0,,,,,TRAVEL,159.8150004,70,100,0.98,12,0.7,0.7,2.5,4,2,f,j,75,87,,,,
FALSE,travel,2,61499,0.0-2.0,,,,,TRAVEL,159.8150004,70,100,0.98,12,0.7,0.7,2.5,4,2,f,j,76,87,,,,
TRUE,travel,2,61690,0.0-2.0,,,,,TRAVEL,191.5899999,70,100,0.98,12,0.7,0.7,2.5,4,2,f,j,76,87,,,,
FALSE,travel,2,61691,0.0-2.0,,,,,TRAVEL,191.5899999,70,100,0.98,12,0.7,0.7,2.5,4,2,f,j,77,87,,,,
TRUE,travel,2,61866,0.0-2.0,,,,,TRAVEL,175.7899998,70,100,0.98,12,0.7,0.7,2.5,4,2,f,j,77,87,,,,
FALSE,travel,2,61867,0.0-2.0,,,,,TRAVEL,175.7899998,70,100,0.98,12,0.7,0.7,2.5,4,2,f,j,78,87,,,,
FALSE,travel,2,62042,0.0-2.0,,,,,TRAVEL,175.6250001,70,100,0.98,12,0.7,0.7,2.5,4,2,f,j,78,87,,,,
FALSE,travel,2,62234,0.0-2.0,,,,,TRAVEL,191.8349992,70,100,0.98,12,0.7,0.7,2.5,4,2,f,j,78,87,,,,
TRUE,travel,2,62394,0.0-2.0,,,,,TRAVEL,159.7999996,70,100,0.98,12,0.7,0.7,2.5,4,2,f,j,78,87,,,,
FALSE,travel,2,62394,0.0-2.0,,,,,TRAVEL,159.7999996,70,100,0.98,12,0.7,0.7,2.5,4,2,f,j,79,87,,,,
TRUE,travel,2,62570,0.0-2.0,,,,,TRAVEL,175.7799992,70,100,0.98,12,0.7,0.7,2.5,4,2,f,j,79,87,,,,
FALSE,travel,2,62571,0.0-2.0,,,,,TRAVEL,175.7799992,70,100,0.98,12,0.7,0.7,2.5,4,2,f,j,80,87,,,,
FALSE,travel,2,62762,0.0-2.0,,,,,TRAVEL,191.6699996,70,100,0.98,12,0.7,0.7,2.5,4,2,f,j,80,87,,,,
TRUE,travel,2,62954,0.0-2.0,,,,,TRAVEL,191.8949997,70,100,0.98,12,0.7,0.7,2.5,4,2,f,j,80,87,,,,
FALSE,travel,2,62955,0.0-2.0,,,,,TRAVEL,191.8949997,70,100,0.98,12,0.7,0.7,2.5,4,2,f,j,81,87,,,,
TRUE,travel,2,63114,0.0-2.0,,,,,TRAVEL,159.8050008,70,100,0.98,12,0.7,0.7,2.5,4,2,f,j,81,87,,,,
FALSE,travel,2,63115,0.0-2.0,,,,,TRAVEL,159.8050008,70,100,0.98,12,0.7,0.7,2.5,4,2,f,j,82,87,,,,
TRUE,travel,2,63306,0.0-2.0,,,,,TRAVEL,191.6199997,70,100,0.98,12,0.7,0.7,2.5,4,2,f,j,82,87,,,,
FALSE,travel,2,63307,0.0-2.0,,,,,TRAVEL,191.6199997,70,100,0.98,12,0.7,0.7,2.5,4,2,f,j,83,87,,,,
TRUE,travel,2,63482,0.0-2.0,,,,,TRAVEL,175.5499998,70,100,0.98,12,0.7,0.7,2.5,4,2,f,j,83,87,,,,
FALSE,travel,2,63482,0.0-2.0,,,,,TRAVEL,175.5499998,70,100,0.98,12,0.7,0.7,2.5,4,2,f,j,84,87,,,,
TRUE,travel,2,63674,0.0-2.0,,,,,TRAVEL,191.8599997,70,100,0.98,12,0.7,0.7,2.5,4,2,f,j,84,87,,,,
TRUE,travel,2,64091,0.0-2.0,,,,,Harvest,415.3499994,74,100,0.98,12,0.7,0.7,2.5,4,2,f,j,85,87,102.6868847,100.4475615,0,
TRUE,travel,2,64267,0.0-2.0,,,,,Harvest,175.4600005,74,100,0.98,12,0.7,0.7,2.5,4,2,f,j,85,87,103.2342936,98.43861028,0,
TRUE,travel,2,64443,0.0-2.0,,,,,Harvest,175.3099998,74,100,0.98,12,0.7,0.7,2.5,4,2,f,j,85,87,90.07511486,96.46983808,0,
TRUE,travel,2,64619,0.0-2.0,,,,,Harvest,175.4149999,74,100,0.98,12,0.7,0.7,2.5,4,2,f,j,85,87,95.58272686,94.54044131,0,
TRUE,travel,2,64795,0.0-2.0,,,,,Harvest,175.2049997,74,100,0.98,12,0.7,0.7,2.5,4,2,f,j,85,87,89.98419694,92.64963249,0,
TRUE,travel,2,64988,0.0-2.0,,,,,Harvest,191.5199999,74,100,0.98,12,0.7,0.7,2.5,4,2,f,j,85,87,91.7782443,90.79663984,0,
TRUE,travel,2,65147,0.0-2.0,,,,,Harvest,158.2850004,74,100,0.98,12,0.7,0.7,2.5,4,2,f,j,85,87,88.94370622,88.98070704,0,
FALSE,travel,2,65323,0.0-2.0,,,,,Harvest,175.3900005,74,100,0.98,12,0.7,0.7,2.5,4,2,f,j,85,87,null,87.2010929,0,
TRUE,travel,2,65515,0.0-2.0,,,,,Harvest,191.7049997,74,100,0.98,12,0.7,0.7,2.5,4,2,f,j,85,87,88.57520637,87.2010929,0,
FALSE,travel,2,65706,0.0-2.0,,,,,Harvest,191.2500001,74,100,0.98,12,0.7,0.7,2.5,4,2,f,j,85,87,null,85.45707104,0,
TRUE,travel,2,65883,0.0-2.0,,,,,Harvest,175.9050004,74,100,0.98,12,0.7,0.7,2.5,4,2,f,j,85,87,83.73044219,85.45707104,0,
FALSE,travel,2,66059,0.0-2.0,,,,,Harvest,175.4049994,74,100,0.98,12,0.7,0.7,2.5,4,2,f,j,85,87,null,83.74792962,0,
TRUE,travel,2,66235,0.0-2.0,,,,,Harvest,175.7049998,74,100,0.98,12,0.7,0.7,2.5,4,2,f,j,85,87,83.12932398,83.74792962,0,
TRUE,travel,2,66427,0.0-2.0,,,,,Harvest,191.2000002,74,100,0.98,12,0.7,0.7,2.5,4,2,f,j,85,87,77.46683366,82.07297103,0,
TRUE,travel,2,66618,0.0-2.0,,,,,Harvest,191.2150001,74,100,0.98,12,0.7,0.7,2.5,4,2,f,j,85,87,84.46269807,80.43151161,0,
TRUE,travel,2,66795,0.0-2.0,,,,,Harvest,175.6750001,74,100,0.98,12,0.7,0.7,2.5,4,2,f,j,85,87,78.68741958,78.82288138,0,
TRUE,travel,2,66971,0.0-2.0,,,,,Harvest,175.5849998,74,100,0.98,12,0.7,0.7,2.5,4,2,f,j,85,87,72.18410446,77.24642375,0,
FALSE,travel,2,67178,0.0-2.0,,,,,Harvest,207.1799999,74,100,0.98,12,0.7,0.7,2.5,4,2,f,j,85,87,null,75.70149527,0,
TRUE,travel,2,67387,0.0-2.0,,,,,Harvest,207.835,74,100,0.98,12,0.7,0.7,2.5,4,2,f,j,85,87,77.50471859,75.70149527,0,
FALSE,travel,2,67578,0.0-2.0,,,,,Harvest,191.2400005,74,100,0.98,12,0.7,0.7,2.5,4,2,f,j,85,87,null,74.18746537,0,
TRUE,travel,2,67755,0.0-2.0,,,,,Harvest,175.7550007,74,100,0.98,12,0.7,0.7,2.5,4,2,f,j,85,87,73.07590375,74.18746537,0,
TRUE,travel,2,67932,0.0-2.0,,,,,Harvest,175.4950006,74,100,0.98,12,0.7,0.7,2.5,4,2,f,j,85,87,72.90899119,72.70371606,0,
FALSE,travel,2,68123,0.0-2.0,,,,,Harvest,190.0599999,74,100,0.98,12,0.7,0.7,2.5,4,2,f,j,85,87,null,71.24964174,0,
TRUE,travel,2,68299,0.0-2.0,,,,,Harvest,175.6799994,74,100,0.98,12,0.7,0.7,2.5,4,2,f,j,85,87,69.53540858,71.24964174,0,
TRUE,travel,2,68491,0.0-2.0,,,,,Harvest,191.3750004,74,100,0.98,12,0.7,0.7,2.5,4,2,f,j,85,87,72.98230594,69.82464891,0,
FALSE,travel,2,68666,0.0-2.0,,,,,Harvest,175.33,74,100,0.98,12,0.7,0.7,2.5,4,2,f,j,85,87,null,68.42815593,0,
TRUE,travel,2,68859,0.0-2.0,,,,,Harvest,191.7749997,74,100,0.98,12,0.7,0.7,2.5,4,2,f,j,85,87,73.13526395,68.42815593,0,
TRUE,travel,2,69035,0.0-2.0,,,,,Harvest,175.3750006,74,100,0.98,12,0.7,0.7,2.5,4,2,f,j,85,87,68.63172139,67.05959281,0,
TRUE,travel,2,69211,0.0-2.0,,,,,Harvest,175.5550001,74,100,0.98,12,0.7,0.7,2.5,4,2,f,j,85,87,64.24037571,65.71840095,0,
FALSE,travel,2,69387,0.0-2.0,,,,,Harvest,175.1899999,74,100,0.98,12,0.7,0.7,2.5,4,2,f,j,85,87,null,64.40403293,0,
TRUE,travel,2,69579,0.0-2.0,,,,,Harvest,192.2200006,74,100,0.98,12,0.7,0.7,2.5,4,2,f,j,85,87,63.39627092,64.40403293,0,
TRUE,travel,2,69755,0.0-2.0,,,,,Harvest,174.8600006,74,100,0.98,12,0.7,0.7,2.5,4,2,f,j,85,87,63.08944885,63.11595227,0,
,travel,2,69899,0.0-2.0,,,,,Harvest,143.2650005,70,100,0.98,12,0.7,0.7,2.5,4,2,f,j,86,99,null,,1,null
TRUE,travel,2,70074,0.0-2.0,,,,,TRAVEL,175.5050002,70,100,0.98,12,0.7,0.7,2.5,4,2,f,j,86,99,,,,
FALSE,travel,2,70075,0.0-2.0,,,,,TRAVEL,175.5050002,70,100,0.98,12,0.7,0.7,2.5,4,2,f,j,87,99,,,,
TRUE,travel,2,70234,0.0-2.0,,,,,TRAVEL,159.6800005,70,100,0.98,12,0.7,0.7,2.5,4,2,f,j,87,99,,,,
FALSE,travel,2,70235,0.0-2.0,,,,,TRAVEL,159.6800005,70,100,0.98,12,0.7,0.7,2.5,4,2,f,j,88,99,,,,
FALSE,travel,2,70394,0.0-2.0,,,,,TRAVEL,159.7450003,70,100,0.98,12,0.7,0.7,2.5,4,2,f,j,88,99,,,,
TRUE,travel,2,70570,0.0-2.0,,,,,TRAVEL,175.8700004,70,100,0.98,12,0.7,0.7,2.5,4,2,f,j,88,99,,,,
FALSE,travel,2,70571,0.0-2.0,,,,,TRAVEL,175.8700004,70,100,0.98,12,0.7,0.7,2.5,4,2,f,j,89,99,,,,
TRUE,travel,2,70746,0.0-2.0,,,,,TRAVEL,175.6450003,70,100,0.98,12,0.7,0.7,2.5,4,2,f,j,89,99,,,,
FALSE,travel,2,70747,0.0-2.0,,,,,TRAVEL,175.6450003,70,100,0.98,12,0.7,0.7,2.5,4,2,f,j,90,99,,,,
TRUE,travel,2,70906,0.0-2.0,,,,,TRAVEL,159.6299997,70,100,0.98,12,0.7,0.7,2.5,4,2,f,j,90,99,,,,
FALSE,travel,2,70907,0.0-2.0,,,,,TRAVEL,159.6299997,70,100,0.98,12,0.7,0.7,2.5,4,2,f,j,91,99,,,,
TRUE,travel,2,71082,0.0-2.0,,,,,TRAVEL,175.76,70,100,0.98,12,0.7,0.7,2.5,4,2,f,j,91,99,,,,
FALSE,travel,2,71083,0.0-2.0,,,,,TRAVEL,175.76,70,100,0.98,12,0.7,0.7,2.5,4,2,f,j,92,99,,,,
TRUE,travel,2,71274,0.0-2.0,,,,,TRAVEL,191.6849995,70,100,0.98,12,0.7,0.7,2.5,4,2,f,j,92,99,,,,
FALSE,travel,2,71275,0.0-2.0,,,,,TRAVEL,191.6849995,70,100,0.98,12,0.7,0.7,2.5,4,2,f,j,93,99,,,,
TRUE,travel,2,71434,0.0-2.0,,,,,TRAVEL,159.7199999,70,100,0.98,12,0.7,0.7,2.5,4,2,f,j,93,99,,,,
FALSE,travel,2,71435,0.0-2.0,,,,,TRAVEL,159.7199999,70,100,0.98,12,0.7,0.7,2.5,4,2,f,j,94,99,,,,
FALSE,travel,2,71626,0.0-2.0,,,,,TRAVEL,191.745,70,100,0.98,12,0.7,0.7,2.5,4,2,f,j,94,99,,,,
TRUE,travel,2,71818,0.0-2.0,,,,,TRAVEL,191.745,70,100,0.98,12,0.7,0.7,2.5,4,2,f,j,94,99,,,,
FALSE,travel,2,71818,0.0-2.0,,,,,TRAVEL,191.745,70,100,0.98,12,0.7,0.7,2.5,4,2,f,j,95,99,,,,
TRUE,travel,2,71994,0.0-2.0,,,,,TRAVEL,175.7349996,70,100,0.98,12,0.7,0.7,2.5,4,2,f,j,95,99,,,,
FALSE,travel,2,71994,0.0-2.0,,,,,TRAVEL,175.7349996,70,100,0.98,12,0.7,0.7,2.5,4,2,f,j,96,99,,,,
TRUE,travel,2,72170,0.0-2.0,,,,,TRAVEL,175.7899998,70,100,0.98,12,0.7,0.7,2.5,4,2,f,j,96,99,,,,
TRUE,travel,2,72603,0.0-2.0,,,,,Harvest,431.5400003,74,100,0.98,12,0.7,0.7,2.5,4,2,f,j,97,99,98.85115217,94.59115134,0,
FALSE,travel,2,72778,0.0-2.0,,,,,Harvest,175.2900006,74,100,0.98,12,0.7,0.7,2.5,4,2,f,j,97,99,null,92.69932831,0,
TRUE,travel,2,72955,0.0-2.0,,,,,Harvest,175.7499995,74,100,0.98,12,0.7,0.7,2.5,4,2,f,j,97,99,87.38998875,92.69932831,0,
FALSE,travel,2,73115,0.0-2.0,,,,,Harvest,159.3349995,74,100,0.98,12,0.7,0.7,2.5,4,2,f,j,97,99,null,90.84534175,0,
TRUE,travel,2,73307,0.0-2.0,,,,,Harvest,191.7099999,74,100,0.98,12,0.7,0.7,2.5,4,2,f,j,97,99,90.68590554,90.84534175,0,
TRUE,travel,2,73483,0.0-2.0,,,,,Harvest,175.2899997,74,100,0.98,12,0.7,0.7,2.5,4,2,f,j,97,99,86.5918626,89.02843491,0,
TRUE,travel,2,73659,0.0-2.0,,,,,Harvest,175.4449997,74,100,0.98,12,0.7,0.7,2.5,4,2,f,j,97,99,93.55523942,87.24786621,0,
TRUE,travel,2,73851,0.0-2.0,,,,,Harvest,191.3000001,74,100,0.98,12,0.7,0.7,2.5,4,2,f,j,97,99,86.23641938,85.50290889,0,
TRUE,travel,2,74011,0.0-2.0,,,,,Harvest,159.3849994,74,100,0.98,12,0.7,0.7,2.5,4,2,f,j,97,99,85.953263,83.79285071,0,
TRUE,travel,2,74187,0.0-2.0,,,,,Harvest,175.3950007,74,100,0.98,12,0.7,0.7,2.5,4,2,f,j,97,99,80.90196974,82.1169937,0,
TRUE,travel,2,74379,0.0-2.0,,,,,Harvest,191.3799997,74,100,0.98,12,0.7,0.7,2.5,4,2,f,j,97,99,84.48087425,80.47465382,0,
FALSE,travel,2,74555,0.0-2.0,,,,,Harvest,175.6949993,74,100,0.98,12,0.7,0.7,2.5,4,2,f,j,97,99,null,78.86516075,0,
TRUE,travel,2,74731,0.0-2.0,,,,,Harvest,175.3899995,74,100,0.98,12,0.7,0.7,2.5,4,2,f,j,97,99,78.48483917,78.86516075,0,
TRUE,travel,2,74908,0.0-2.0,,,,,Harvest,175.2399998,74,100,0.98,12,0.7,0.7,2.5,4,2,f,j,97,99,77.28088274,77.28785753,0,
TRUE,travel,2,75115,0.0-2.0,,,,,Harvest,206.0750006,74,100,0.98,12,0.7,0.7,2.5,4,2,f,j,97,99,80.23559368,75.74210038,0,
FALSE,travel,2,75291,0.0-2.0,,,,,Harvest,175.5400002,74,100,0.98,12,0.7,0.7,2.5,4,2,f,j,97,99,null,74.22725837,0,
TRUE,travel,2,75435,0.0-2.0,,,,,Harvest,143.6550003,74,100,0.98,12,0.7,0.7,2.5,4,2,f,j,97,99,68.98380508,74.22725837,0,
FALSE,travel,2,75595,0.0-2.0,,,,,Harvest,159.2250001,74,100,0.98,12,0.7,0.7,2.5,4,2,f,j,97,99,null,72.74271321,0,
TRUE,travel,2,75787,0.0-2.0,,,,,Harvest,191.7049997,74,100,0.98,12,0.7,0.7,2.5,4,2,f,j,97,99,74.49286956,72.74271321,0,
TRUE,travel,2,75963,0.0-2.0,,,,,Harvest,175.4000001,74,100,0.98,12,0.7,0.7,2.5,4,2,f,j,97,99,69.54597778,71.28785894,0,
FALSE,travel,2,76139,0.0-2.0,,,,,Harvest,175.4099997,74,100,0.98,12,0.7,0.7,2.5,4,2,f,j,97,99,null,69.86210176,0,
TRUE,travel,2,76331,0.0-2.0,,,,,Harvest,191.5800003,74,100,0.98,12,0.7,0.7,2.5,4,2,f,j,97,99,72.56864005,69.86210176,0,
TRUE,travel,2,76524,0.0-2.0,,,,,Harvest,192.0750001,74,100,0.98,12,0.7,0.7,2.5,4,2,f,j,97,99,65.74472692,68.46485973,0,
TRUE,travel,2,76731,0.0-2.0,,,,,Harvest,206.6799998,74,100,0.98,12,0.7,0.7,2.5,4,2,f,j,97,99,64.37242001,67.09556253,0,
TRUE,travel,2,76923,0.0-2.0,,,,,Harvest,191.2899995,74,100,0.98,12,0.7,0.7,2.5,4,2,f,j,97,99,62.16997507,65.75365128,0,
FALSE,travel,2,77115,0.0-2.0,,,,,Harvest,191.3949996,74,100,0.98,12,0.7,0.7,2.5,4,2,f,j,97,99,null,64.43857826,0,
FALSE,travel,2,77291,0.0-2.0,,,,,Harvest,175.7700006,74,100,0.98,12,0.7,0.7,2.5,4,2,f,j,97,99,null,64.43857826,0,
TRUE,travel,2,77483,0.0-2.0,,,,,Harvest,191.6749999,74,100,0.98,12,0.7,0.7,2.5,4,2,f,j,97,99,66.34895118,64.43857826,0,
FALSE,travel,2,77659,0.0-2.0,,,,,Harvest,175.4249996,74,100,0.98,12,0.7,0.7,2.5,4,2,f,j,97,99,null,63.14980669,0,
TRUE,travel,2,77836,0.0-2.0,,,,,Harvest,175.5600004,74,100,0.98,12,0.7,0.7,2.5,4,2,f,j,97,99,65.15155056,63.14980669,0,
TRUE,travel,2,78171,0.0-2.0,,,,,Harvest,333.7399997,74,100,0.98,12,0.7,0.7,2.5,4,2,f,j,97,99,61.85569695,61.88681056,0,
TRUE,travel,2,78363,0.0-2.0,,,,,Harvest,191.3600005,74,100,0.98,12,0.7,0.7,2.5,4,2,f,j,97,99,60.16291672,60.64907435,0,
FALSE,travel,2,78555,0.0-2.0,,,,,Harvest,191.5849997,74,100,0.98,12,0.7,0.7,2.5,4,2,f,j,97,99,null,59.43609286,0,
TRUE,travel,2,78731,0.0-2.0,,,,,Harvest,175.5449995,74,100,0.98,12,0.7,0.7,2.5,4,2,f,j,97,99,57.76611121,59.43609286,0,
TRUE,travel,2,78939,0.0-2.0,,,,,Harvest,207.3299997,74,100,0.98,12,0.7,0.7,2.5,4,2,f,j,97,99,58.16510872,58.247371,0,
TRUE,travel,2,79131,0.0-2.0,,,,,Harvest,191.4100004,74,100,0.98,12,0.7,0.7,2.5,4,2,f,j,97,99,56.12425199,57.08242358,0,
TRUE,travel,2,79323,0.0-2.0,,,,,Harvest,191.2449999,74,100,0.98,12,0.7,0.7,2.5,4,2,f,j,97,99,55.2986903,55.94077511,0,
TRUE,travel,2,79499,0.0-2.0,,,,,Harvest,175.5249994,74,100,0.98,12,0.7,0.7,2.5,4,2,f,j,97,99,57.13161205,54.82195961,0,
,travel,2,79595,0.0-2.0,,,,,Harvest,95.26500013,70,100,0.98,12,0.7,0.7,2.5,4,2,f,j,98,11,null,,1,null
FALSE,travel,2,79771,0.0-2.0,,,,,TRAVEL,176.3999993,70,100,0.98,12,0.7,0.7,2.5,4,2,f,j,98,11,,,,
FALSE,travel,2,79946,0.0-2.0,,,,,TRAVEL,174.8649999,70,100,0.98,12,0.7,0.7,2.5,4,2,f,j,98,11,,,,
TRUE,travel,2,80106,0.0-2.0,,,,,TRAVEL,159.6400002,70,100,0.98,12,0.7,0.7,2.5,4,2,f,j,98,11,,,,
FALSE,travel,2,80106,0.0-2.0,,,,,TRAVEL,159.6400002,70,100,0.98,12,0.7,0.7,2.5,4,2,f,j,99,11,,,,
FALSE,travel,2,80266,0.0-2.0,,,,,TRAVEL,159.9300001,70,100,0.98,12,0.7,0.7,2.5,4,2,f,j,99,11,,,,
TRUE,travel,2,80410,0.0-2.0,,,,,TRAVEL,143.8199999,70,100,0.98,12,0.7,0.7,2.5,4,2,f,j,99,11,,,,
FALSE,travel,2,80410,0.0-2.0,,,,,TRAVEL,143.8199999,70,100,0.98,12,0.7,0.7,2.5,4,2,f,j,100,11,,,,
TRUE,travel,2,80570,0.0-2.0,,,,,TRAVEL,159.7700007,70,100,0.98,12,0.7,0.7,2.5,4,2,f,j,100,11,,,,
FALSE,travel,2,80571,0.0-2.0,,,,,TRAVEL,159.7700007,70,100,0.98,12,0.7,0.7,2.5,4,2,f,j,1,11,,,,
TRUE,travel,2,80730,0.0-2.0,,,,,TRAVEL,159.7250002,70,100,0.98,12,0.7,0.7,2.5,4,2,f,j,1,11,,,,
FALSE,travel,2,80731,0.0-2.0,,,,,TRAVEL,159.7250002,70,100,0.98,12,0.7,0.7,2.5,4,2,f,j,2,11,,,,
TRUE,travel,2,80906,0.0-2.0,,,,,TRAVEL,175.605,70,100,0.98,12,0.7,0.7,2.5,4,2,f,j,2,11,,,,
FALSE,travel,2,80906,0.0-2.0,,,,,TRAVEL,175.605,70,100,0.98,12,0.7,0.7,2.5,4,2,f,j,3,11,,,,
TRUE,travel,2,81066,0.0-2.0,,,,,TRAVEL,159.7100003,70,100,0.98,12,0.7,0.7,2.5,4,2,f,j,3,11,,,,
FALSE,travel,2,81066,0.0-2.0,,,,,TRAVEL,159.7100003,70,100,0.98,12,0.7,0.7,2.5,4,2,f,j,4,11,,,,
FALSE,travel,2,81258,0.0-2.0,,,,,TRAVEL,191.8600006,70,100,0.98,12,0.7,0.7,2.5,4,2,f,j,4,11,,,,
FALSE,travel,2,81450,0.0-2.0,,,,,TRAVEL,191.7050006,70,100,0.98,12,0.7,0.7,2.5,4,2,f,j,4,11,,,,
FALSE,travel,2,81642,0.0-2.0,,,,,TRAVEL,191.9900002,70,100,0.98,12,0.7,0.7,2.5,4,2,f,j,4,11,,,,
TRUE,travel,2,81818,0.0-2.0,,,,,TRAVEL,175.6949993,70,100,0.98,12,0.7,0.7,2.5,4,2,f,j,4,11,,,,
FALSE,travel,2,81818,0.0-2.0,,,,,TRAVEL,175.6949993,70,100,0.98,12,0.7,0.7,2.5,4,2,f,j,5,11,,,,
TRUE,travel,2,82010,0.0-2.0,,,,,TRAVEL,191.7150002,70,100,0.98,12,0.7,0.7,2.5,4,2,f,j,5,11,,,,
FALSE,travel,2,82010,0.0-2.0,,,,,TRAVEL,191.7150002,70,100,0.98,12,0.7,0.7,2.5,4,2,f,j,6,11,,,,
TRUE,travel,2,82186,0.0-2.0,,,,,TRAVEL,175.6849997,70,100,0.98,12,0.7,0.7,2.5,4,2,f,j,6,11,,,,
FALSE,travel,2,82186,0.0-2.0,,,,,TRAVEL,175.6849997,70,100,0.98,12,0.7,0.7,2.5,4,2,f,j,7,11,,,,
TRUE,travel,2,82362,0.0-2.0,,,,,TRAVEL,175.795,70,100,0.98,12,0.7,0.7,2.5,4,2,f,j,7,11,,,,
FALSE,travel,2,82363,0.0-2.0,,,,,TRAVEL,175.795,70,100,0.98,12,0.7,0.7,2.5,4,2,f,j,8,11,,,,
TRUE,travel,2,82586,0.0-2.0,,,,,TRAVEL,223.6550003,70,100,0.98,12,0.7,0.7,2.5,4,2,f,j,8,11,,,,
TRUE,travel,2,83051,0.0-2.0,,,,,Harvest,463.9349999,74,100,0.98,12,0.7,0.7,2.5,4,2,f,j,9,11,86.5736056,89.58219273,0,
TRUE,travel,2,83227,0.0-2.0,,,,,Harvest,175.3350003,74,100,0.98,12,0.7,0.7,2.5,4,2,f,j,9,11,86.90255521,87.79054887,0,
TRUE,travel,2,83419,0.0-2.0,,,,,Harvest,191.1350004,74,100,0.98,12,0.7,0.7,2.5,4,2,f,j,9,11,82.10193889,86.0347379,0,
TRUE,travel,2,83611,0.0-2.0,,,,,Harvest,191.4000008,74,100,0.98,12,0.7,0.7,2.5,4,2,f,j,9,11,88.57641953,84.31404314,0,
FALSE,travel,2,83787,0.0-2.0,,,,,Harvest,175.3850002,74,100,0.98,12,0.7,0.7,2.5,4,2,f,j,9,11,null,82.62776227,0,
FALSE,travel,2,83980,0.0-2.0,,,,,Harvest,191.6349996,74,100,0.98,12,0.7,0.7,2.5,4,2,f,j,9,11,null,82.62776227,0,
TRUE,travel,2,84155,0.0-2.0,,,,,Harvest,174.4949995,74,100,0.98,12,0.7,0.7,2.5,4,2,f,j,9,11,81.02225728,82.62776227,0,
TRUE,travel,2,84331,0.0-2.0,,,,,Harvest,175.365,74,100,0.98,12,0.7,0.7,2.5,4,2,f,j,9,11,82.9174506,80.97520703,0,
TRUE,travel,2,84507,0.0-2.0,,,,,Harvest,175.2249999,74,100,0.98,12,0.7,0.7,2.5,4,2,f,j,9,11,80.46254994,79.35570289,0,
TRUE,travel,2,84667,0.0-2.0,,,,,Harvest,159.4550004,74,100,0.98,12,0.7,0.7,2.5,4,2,f,j,9,11,79.51901748,77.76858883,0,
FALSE,travel,2,84842,0.0-2.0,,,,,Harvest,175.2399998,74,100,0.98,12,0.7,0.7,2.5,4,2,f,j,9,11,null,76.21321705,0,
FALSE,travel,2,85035,0.0-2.0,,,,,Harvest,191.7849993,74,100,0.98,12,0.7,0.7,2.5,4,2,f,j,9,11,null,76.21321705,0,
TRUE,travel,2,85211,0.0-2.0,,,,,Harvest,175.6699998,74,100,0.98,12,0.7,0.7,2.5,4,2,f,j,9,11,77.70526897,76.21321705,0,
FALSE,travel,2,85387,0.0-2.0,,,,,Harvest,175.4999999,74,100,0.98,12,0.7,0.7,2.5,4,2,f,j,9,11,null,74.68895271,0,
TRUE,travel,2,85579,0.0-2.0,,,,,Harvest,191.6900007,74,100,0.98,12,0.7,0.7,2.5,4,2,f,j,9,11,76.19682354,74.68895271,0,
TRUE,travel,2,85755,0.0-2.0,,,,,Harvest,175.2800001,74,100,0.98,12,0.7,0.7,2.5,4,2,f,j,9,11,75.17419738,73.19517366,0,
TRUE,travel,2,85931,0.0-2.0,,,,,Harvest,175.4149999,74,100,0.98,12,0.7,0.7,2.5,4,2,f,j,9,11,73.99613686,71.73127019,0,
FALSE,travel,2,86107,0.0-2.0,,,,,Harvest,175.2750007,74,100,0.98,12,0.7,0.7,2.5,4,2,f,j,9,11,null,70.29664478,0,
FALSE,travel,2,86299,0.0-2.0,,,,,Harvest,191.7900005,74,100,0.98,12,0.7,0.7,2.5,4,2,f,j,9,11,null,70.29664478,0,
TRUE,travel,2,86491,0.0-2.0,,,,,Harvest,191.625,74,100,0.98,12,0.7,0.7,2.5,4,2,f,j,9,11,69.01984583,70.29664478,0,
TRUE,travel,2,86699,0.0-2.0,,,,,Harvest,207.4449994,74,100,0.98,12,0.7,0.7,2.5,4,2,f,j,9,11,66.90036626,68.89071189,0,
TRUE,travel,2,86892,0.0-2.0,,,,,Harvest,191.3000001,74,100,0.98,12,0.7,0.7,2.5,4,2,f,j,9,11,67.88974612,67.51289765,0,
FALSE,travel,2,87067,0.0-2.0,,,,,Harvest,174.075,74,100,0.98,12,0.7,0.7,2.5,4,2,f,j,9,11,null,66.1626397,0,
FALSE,travel,2,87259,0.0-2.0,,,,,Harvest,191.8699993,74,100,0.98,12,0.7,0.7,2.5,4,2,f,j,9,11,null,66.1626397,0,
TRUE,travel,2,87451,0.0-2.0,,,,,Harvest,191.6300002,74,100,0.98,12,0.7,0.7,2.5,4,2,f,j,9,11,62.77580685,66.1626397,0,
FALSE,travel,2,87643,0.0-2.0,,,,,Harvest,191.3550003,74,100,0.98,12,0.7,0.7,2.5,4,2,f,j,9,11,null,64.8393869,0,
TRUE,travel,2,87851,0.0-2.0,,,,,Harvest,207.8499999,74,100,0.98,12,0.7,0.7,2.5,4,2,f,j,9,11,61.25432985,64.8393869,0,
FALSE,travel,2,88027,0.0-2.0,,,,,Harvest,175.2399998,74,100,0.98,12,0.7,0.7,2.5,4,2,f,j,9,11,null,63.54259916,0,
,travel,2,88107,0.0-2.0,,,,,Harvest,79.62500025,70,100,0.98,12,0.7,0.7,2.5,4,2,f,j,10,23,null,,1,null
TRUE,travel,2,88266,0.0-2.0,,,,,TRAVEL,159.5200002,70,100,0.98,12,0.7,0.7,2.5,4,2,f,j,10,23,,,,
FALSE,travel,2,88267,0.0-2.0,,,,,TRAVEL,159.5200002,70,100,0.98,12,0.7,0.7,2.5,4,2,f,j,11,23,,,,
TRUE,travel,2,88426,0.0-2.0,,,,,TRAVEL,159.5700001,70,100,0.98,12,0.7,0.7,2.5,4,2,f,j,11,23,,,,
FALSE,travel,2,88426,0.0-2.0,,,,,TRAVEL,159.5700001,70,100,0.98,12,0.7,0.7,2.5,4,2,f,j,12,23,,,,
TRUE,travel,2,88602,0.0-2.0,,,,,TRAVEL,175.8250007,70,100,0.98,12,0.7,0.7,2.5,4,2,f,j,12,23,,,,
FALSE,travel,2,88603,0.0-2.0,,,,,TRAVEL,175.8250007,70,100,0.98,12,0.7,0.7,2.5,4,2,f,j,13,23,,,,
FALSE,travel,2,88762,0.0-2.0,,,,,TRAVEL,159.6299997,70,100,0.98,12,0.7,0.7,2.5,4,2,f,j,13,23,,,,
FALSE,travel,2,88938,0.0-2.0,,,,,TRAVEL,175.8550005,70,100,0.98,12,0.7,0.7,2.5,4,2,f,j,13,23,,,,
FALSE,travel,2,89098,0.0-2.0,,,,,TRAVEL,159.8199997,70,100,0.98,12,0.7,0.7,2.5,4,2,f,j,13,23,,,,
TRUE,travel,2,89290,0.0-2.0,,,,,TRAVEL,191.8850001,70,100,0.98,12,0.7,0.7,2.5,4,2,f,j,13,23,,,,
FALSE,travel,2,89291,0.0-2.0,,,,,TRAVEL,191.8850001,70,100,0.98,12,0.7,0.7,2.5,4,2,f,j,14,23,,,,
TRUE,travel,2,89450,0.0-2.0,,,,,TRAVEL,159.705,70,100,0.98,12,0.7,0.7,2.5,4,2,f,j,14,23,,,,
FALSE,travel,2,89451,0.0-2.0,,,,,TRAVEL,159.705,70,100,0.98,12,0.7,0.7,2.5,4,2,f,j,15,23,,,,
FALSE,travel,2,89610,0.0-2.0,,,,,TRAVEL,159.7799994,70,100,0.98,12,0.7,0.7,2.5,4,2,f,j,15,23,,,,
FALSE,travel,2,89770,0.0-2.0,,,,,TRAVEL,159.7750001,70,100,0.98,12,0.7,0.7,2.5,4,2,f,j,15,23,,,,
TRUE,travel,2,89963,0.0-2.0,,,,,TRAVEL,192.3500001,70,100,0.98,12,0.7,0.7,2.5,4,2,f,j,15,23,,,,
FALSE,travel,2,89963,0.0-2.0,,,,,TRAVEL,192.3500001,70,100,0.98,12,0.7,0.7,2.5,4,2,f,j,16,23,,,,
TRUE,travel,2,90138,0.0-2.0,,,,,TRAVEL,175.2300002,70,100,0.98,12,0.7,0.7,2.5,4,2,f,j,16,23,,,,
FALSE,travel,2,90139,0.0-2.0,,,,,TRAVEL,175.2300002,70,100,0.98,12,0.7,0.7,2.5,4,2,f,j,17,23,,,,
TRUE,travel,2,90330,0.0-2.0,,,,,TRAVEL,191.7099999,70,100,0.98,12,0.7,0.7,2.5,4,2,f,j,17,23,,,,
FALSE,travel,2,90331,0.0-2.0,,,,,TRAVEL,191.7099999,70,100,0.98,12,0.7,0.7,2.5,4,2,f,j,18,23,,,,
FALSE,travel,2,90522,0.0-2.0,,,,,TRAVEL,191.695,70,100,0.98,12,0.7,0.7,2.5,4,2,f,j,18,23,,,,
TRUE,travel,2,90714,0.0-2.0,,,,,TRAVEL,191.8450007,70,100,0.98,12,0.7,0.7,2.5,4,2,f,j,18,23,,,,
FALSE,travel,2,90714,0.0-2.0,,,,,TRAVEL,191.8450007,70,100,0.98,12,0.7,0.7,2.5,4,2,f,j,19,23,,,,
TRUE,travel,2,90922,0.0-2.0,,,,,TRAVEL,207.7199994,70,100,0.98,12,0.7,0.7,2.5,4,2,f,j,19,23,,,,
FALSE,travel,2,90922,0.0-2.0,,,,,TRAVEL,207.7199994,70,100,0.98,12,0.7,0.7,2.5,4,2,f,j,20,23,,,,
TRUE,travel,2,91098,0.0-2.0,,,,,TRAVEL,175.6950002,70,100,0.98,12,0.7,0.7,2.5,4,2,f,j,20,23,,,,
TRUE,travel,2,91515,0.0-2.0,,,,,Harvest,415.7050001,74,100,0.98,12,0.7,0.7,2.5,4,2,f,j,21,23,98.77533198,98.91949943,0,
TRUE,travel,2,91691,0.0-2.0,,,,,Harvest,175.245,74,100,0.98,12,0.7,0.7,2.5,4,2,f,j,21,23,97.93275655,96.94110944,0,
FALSE,travel,2,91850,0.0-2.0,,,,,Harvest,159.2499996,74,100,0.98,12,0.7,0.7,2.5,4,2,f,j,21,23,null,95.00228725,0,
FALSE,travel,2,92027,0.0-2.0,,,,,Harvest,175.8350004,74,100,0.98,12,0.7,0.7,2.5,4,2,f,j,21,23,null,95.00228725,0,
TRUE,travel,2,92203,0.0-2.0,,,,,Harvest,175.6300004,74,100,0.98,12,0.7,0.7,2.5,4,2,f,j,21,23,95.23233634,95.00228725,0,
FALSE,travel,2,92363,0.0-2.0,,,,,Harvest,159.4350003,74,100,0.98,12,0.7,0.7,2.5,4,2,f,j,21,23,null,93.10224151,0,
FALSE,travel,2,92523,0.0-2.0,,,,,Harvest,160.0049995,74,100,0.98,12,0.7,0.7,2.5,4,2,f,j,21,23,null,93.10224151,0,
TRUE,travel,2,92699,0.0-2.0,,,,,Harvest,175.3200004,74,100,0.98,12,0.7,0.7,2.5,4,2,f,j,21,23,97.89392689,93.10224151,0,
FALSE,travel,2,92891,0.0-2.0,,,,,Harvest,191.4900001,74,100,0.98,12,0.7,0.7,2.5,4,2,f,j,21,23,null,91.24019668,0,
TRUE,travel,2,93036,0.0-2.0,,,,,Harvest,143.6250005,74,100,0.98,12,0.7,0.7,2.5,4,2,f,j,21,23,92.9067439,91.24019668,0,
FALSE,travel,2,93179,0.0-2.0,,,,,Harvest,141.9700002,74,100,0.98,12,0.7,0.7,2.5,4,2,f,j,21,23,null,89.41539274,0,
TRUE,travel,2,93355,0.0-2.0,,,,,Harvest,175.7450001,74,100,0.98,12,0.7,0.7,2.5,4,2,f,j,21,23,88.06960219,89.41539274,0,
TRUE,travel,2,93515,0.0-2.0,,,,,Harvest,159.2700006,74,100,0.98,12,0.7,0.7,2.5,4,2,f,j,21,23,89.69788547,87.62708489,0,
FALSE,travel,2,93675,0.0-2.0,,,,,Harvest,159.4199995,74,100,0.98,12,0.7,0.7,2.5,4,2,f,j,21,23,null,85.87454319,0,
TRUE,travel,2,93851,0.0-2.0,,,,,Harvest,175.6100003,74,100,0.98,12,0.7,0.7,2.5,4,2,f,j,21,23,82.70636878,85.87454319,0,
FALSE,travel,2,94026,0.0-2.0,,,,,Harvest,175.3749996,74,100,0.98,12,0.7,0.7,2.5,4,2,f,j,21,23,null,84.15705233,0,
TRUE,travel,2,94203,0.0-2.0,,,,,Harvest,175.7499995,74,100,0.98,12,0.7,0.7,2.5,4,2,f,j,21,23,84.86650978,84.15705233,0,
TRUE,travel,2,94411,0.0-2.0,,,,,Harvest,207.3849998,74,100,0.98,12,0.7,0.7,2.5,4,2,f,j,21,23,79.81836213,82.47391128,0,
TRUE,travel,2,94571,0.0-2.0,,,,,Harvest,159.3800001,74,100,0.98,12,0.7,0.7,2.5,4,2,f,j,21,23,80.52941434,80.82443306,0,
TRUE,travel,2,94731,0.0-2.0,,,,,Harvest,159.275,74,100,0.98,12,0.7,0.7,2.5,4,2,f,j,21,23,80.14166553,79.20794439,0,
TRUE,travel,2,94907,0.0-2.0,,,,,Harvest,175.4200002,74,100,0.98,12,0.7,0.7,2.5,4,2,f,j,21,23,77.17013189,77.62378551,0,
TRUE,travel,2,95083,0.0-2.0,,,,,Harvest,175.4099997,74,100,0.98,12,0.7,0.7,2.5,4,2,f,j,21,23,72.46422495,76.0713098,0,
FALSE,travel,2,95258,0.0-2.0,,,,,Harvest,175.245,74,100,0.98,12,0.7,0.7,2.5,4,2,f,j,21,23,null,74.5498836,0,
,travel,2,95403,0.0-2.0,,,,,Harvest,143.8800003,70,100,0.98,12,0.7,0.7,2.5,4,2,f,j,22,35,null,,1,null
FALSE,travel,2,95578,0.0-2.0,,,,,TRAVEL,175.3749996,70,100,0.98,12,0.7,0.7,2.5,4,2,f,j,22,35,,,,
TRUE,travel,2,95738,0.0-2.0,,,,,TRAVEL,159.7849997,70,100,0.98,12,0.7,0.7,2.5,4,2,f,j,22,35,,,,
FALSE,travel,2,95739,0.0-2.0,,,,,TRAVEL,159.7849997,70,100,0.98,12,0.7,0.7,2.5,4,2,f,j,23,35,,,,
TRUE,travel,2,95899,0.0-2.0,,,,,TRAVEL,159.9249998,70,100,0.98,12,0.7,0.7,2.5,4,2,f,j,23,35,,,,
FALSE,travel,2,95899,0.0-2.0,,,,,TRAVEL,159.9249998,70,100,0.98,12,0.7,0.7,2.5,4,2,f,j,24,35,,,,
TRUE,travel,2,96090,0.0-2.0,,,,,TRAVEL,191.4550001,70,100,0.98,12,0.7,0.7,2.5,4,2,f,j,24,35,,,,
FALSE,travel,2,96090,0.0-2.0,,,,,TRAVEL,191.4550001,70,100,0.98,12,0.7,0.7,2.5,4,2,f,j,25,35,,,,
TRUE,travel,2,96282,0.0-2.0,,,,,TRAVEL,191.815,70,100,0.98,12,0.7,0.7,2.5,4,2,f,j,25,35,,,,
FALSE,travel,2,96283,0.0-2.0,,,,,TRAVEL,191.815,70,100,0.98,12,0.7,0.7,2.5,4,2,f,j,26,35,,,,
FALSE,travel,2,96426,0.0-2.0,,,,,TRAVEL,143.565,70,100,0.98,12,0.7,0.7,2.5,4,2,f,j,26,35,,,,
TRUE,travel,2,96618,0.0-2.0,,,,,TRAVEL,191.8350002,70,100,0.98,12,0.7,0.7,2.5,4,2,f,j,26,35,,,,
FALSE,travel,2,96618,0.0-2.0,,,,,TRAVEL,191.8350002,70,100,0.98,12,0.7,0.7,2.5,4,2,f,j,27,35,,,,
TRUE,travel,2,96810,0.0-2.0,,,,,TRAVEL,191.66,70,100,0.98,12,0.7,0.7,2.5,4,2,f,j,27,35,,,,
FALSE,travel,2,96810,0.0-2.0,,,,,TRAVEL,191.66,70,100,0.98,12,0.7,0.7,2.5,4,2,f,j,28,35,,,,
TRUE,travel,2,96986,0.0-2.0,,,,,TRAVEL,175.7350005,70,100,0.98,12,0.7,0.7,2.5,4,2,f,j,28,35,,,,
FALSE,travel,2,96986,0.0-2.0,,,,,TRAVEL,175.7350005,70,100,0.98,12,0.7,0.7,2.5,4,2,f,j,29,35,,,,
TRUE,travel,2,97162,0.0-2.0,,,,,TRAVEL,175.7849995,70,100,0.98,12,0.7,0.7,2.5,4,2,f,j,29,35,,,,
FALSE,travel,2,97162,0.0-2.0,,,,,TRAVEL,175.7849995,70,100,0.98,12,0.7,0.7,2.5,4,2,f,j,30,35,,,,
TRUE,travel,2,97370,0.0-2.0,,,,,TRAVEL,207.7850001,70,100,0.98,12,0.7,0.7,2.5,4,2,f,j,30,35,,,,
FALSE,travel,2,97372,0.0-2.0,,,,,TRAVEL,207.7850001,70,100,0.98,12,0.7,0.7,2.5,4,2,f,j,31,35,,,,
TRUE,travel,2,97546,0.0-2.0,,,,,TRAVEL,174.6000005,70,100,0.98,12,0.7,0.7,2.5,4,2,f,j,31,35,,,,
FALSE,travel,2,97547,0.0-2.0,,,,,TRAVEL,174.6000005,70,100,0.98,12,0.7,0.7,2.5,4,2,f,j,32,35,,,,
FALSE,travel,2,97722,0.0-2.0,,,,,TRAVEL,175.6849997,70,100,0.98,12,0.7,0.7,2.5,4,2,f,j,32,35,,,,
TRUE,travel,2,97914,0.0-2.0,,,,,TRAVEL,191.8199994,70,100,0.98,12,0.7,0.7,2.5,4,2,f,j,32,35,,,,
TRUE,travel,2,98267,0.0-2.0,,,,,Harvest,351.4249995,74,100,0.98,12,0.7,0.7,2.5,4,2,f,j,33,35,112.4679538,111.4863646,0,
TRUE,travel,2,98427,0.0-2.0,,,,,Harvest,159.5099997,74,100,0.98,12,0.7,0.7,2.5,4,2,f,j,33,35,109.9591668,109.2566373,0,
TRUE,travel,2,98603,0.0-2.0,,,,,Harvest,175.2350004,74,100,0.98,12,0.7,0.7,2.5,4,2,f,j,33,35,110.0863273,107.0715046,0,
TRUE,travel,2,98763,0.0-2.0,,,,,Harvest,158.8099999,74,100,0.98,12,0.7,0.7,2.5,4,2,f,j,33,35,104.3957459,104.9300745,0,
TRUE,travel,2,98955,0.0-2.0,,,,,Harvest,191.35,74,100,0.98,12,0.7,0.7,2.5,4,2,f,j,33,35,100.7125299,102.831473,0,
TRUE,travel,2,99099,0.0-2.0,,,,,Harvest,143.5500002,74,100,0.98,12,0.7,0.7,2.5,4,2,f,j,33,35,101.8906593,100.7748435,0,
FALSE,travel,2,99275,0.0-2.0,,,,,Harvest,175.2700005,74,100,0.98,12,0.7,0.7,2.5,4,2,f,j,33,35,null,98.75934667,0,
TRUE,travel,2,99467,0.0-2.0,,,,,Harvest,191.5800003,74,100,0.98,12,0.7,0.7,2.5,4,2,f,j,33,35,101.3246266,98.75934667,0,
TRUE,travel,2,99643,0.0-2.0,,,,,Harvest,175.4249996,74,100,0.98,12,0.7,0.7,2.5,4,2,f,j,33,35,96.6739831,96.78415974,0,
TRUE,travel,2,99787,0.0-2.0,,,,,Harvest,143.3250001,74,100,0.98,12,0.7,0.7,2.5,4,2,f,j,33,35,92.68139957,94.84847654,0,
TRUE,travel,2,99947,0.0-2.0,,,,,Harvest,159.4200004,74,100,0.98,12,0.7,0.7,2.5,4,2,f,j,33,35,90.47967803,92.95150701,0,
TRUE,travel,2,100123,0.0-2.0,,,,,Harvest,175.2649993,74,100,0.98,12,0.7,0.7,2.5,4,2,f,j,33,35,95.48910608,91.09247687,0,
FALSE,travel,2,100315,0.0-2.0,,,,,Harvest,191.4950004,74,100,0.98,12,0.7,0.7,2.5,4,2,f,j,33,35,null,89.27062733,0,
TRUE,travel,2,100459,0.0-2.0,,,,,Harvest,143.7600004,74,100,0.98,12,0.7,0.7,2.5,4,2,f,j,33,35,84.87614154,89.27062733,0,
TRUE,travel,2,100635,0.0-2.0,,,,,Harvest,175.3850002,74,100,0.98,12,0.7,0.7,2.5,4,2,f,j,33,35,89.08982195,87.48521479,0,
TRUE,travel,2,100796,0.0-2.0,,,,,Harvest,159.2250001,74,100,0.98,12,0.7,0.7,2.5,4,2,f,j,33,35,84.20251851,85.73551049,0,
TRUE,travel,2,100971,0.0-2.0,,,,,Harvest,174.1300002,74,100,0.98,12,0.7,0.7,2.5,4,2,f,j,33,35,89.30839582,84.02080028,0,
FALSE,travel,2,101131,0.0-2.0,,,,,Harvest,159.3650002,74,100,0.98,12,0.7,0.7,2.5,4,2,f,j,33,35,null,82.34038428,0,
TRUE,travel,2,101323,0.0-2.0,,,,,Harvest,191.6650003,74,100,0.98,12,0.7,0.7,2.5,4,2,f,j,33,35,80.81895695,82.34038428,0,
FALSE,travel,2,101515,0.0-2.0,,,,,Harvest,191.4099995,74,100,0.98,12,0.7,0.7,2.5,4,2,f,j,33,35,null,80.69357659,0,
TRUE,travel,2,101691,0.0-2.0,,,,,Harvest,175.6500006,74,100,0.98,12,0.7,0.7,2.5,4,2,f,j,33,35,79.18171172,80.69357659,0,
FALSE,travel,2,101867,0.0-2.0,,,,,Harvest,175.4050003,74,100,0.98,12,0.7,0.7,2.5,4,2,f,j,33,35,null,79.07970506,0,
TRUE,travel,2,102027,0.0-2.0,,,,,Harvest,159.7849997,74,100,0.98,12,0.7,0.7,2.5,4,2,f,j,33,35,73.5500132,79.07970506,0,
TRUE,travel,2,102171,0.0-2.0,,,,,Harvest,143.4349995,74,100,0.98,12,0.7,0.7,2.5,4,2,f,j,33,35,73.76828114,77.49811096,0,
TRUE,travel,2,102347,0.0-2.0,,,,,Harvest,175.1149995,74,100,0.98,12,0.7,0.7,2.5,4,2,f,j,33,35,72.08761982,75.94814874,0,
TRUE,travel,2,102539,0.0-2.0,,,,,Harvest,191.3900003,74,100,0.98,12,0.7,0.7,2.5,4,2,f,j,33,35,78.31273991,74.42918576,0,
TRUE,travel,2,102715,0.0-2.0,,,,,Harvest,175.3150001,74,100,0.98,12,0.7,0.7,2.5,4,2,f,j,33,35,72.92128034,72.94060205,0,
TRUE,travel,2,102908,0.0-2.0,,,,,Harvest,192.2049997,74,100,0.98,12,0.7,0.7,2.5,4,2,f,j,33,35,73.20810331,71.48179001,0,
,travel,2,103003,0.0-2.0,,,,,Harvest,94.77000032,70,100,0.98,12,0.7,0.7,2.5,4,2,f,j,34,47,null,,1,null
TRUE,travel,2,103178,0.0-2.0,,,,,TRAVEL,175.3399996,70,100,0.98,12,0.7,0.7,2.5,4,2,f,j,34,47,,,,
FALSE,travel,2,103179,0.0-2.0,,,,,TRAVEL,175.3399996,70,100,0.98,12,0.7,0.7,2.5,4,2,f,j,35,47,,,,
FALSE,travel,2,103370,0.0-2.0,,,,,TRAVEL,191.7700004,70,100,0.98,12,0.7,0.7,2.5,4,2,f,j,35,47,,,,
TRUE,travel,2,103530,0.0-2.0,,,,,TRAVEL,159.7799994,70,100,0.98,12,0.7,0.7,2.5,4,2,f,j,35,47,,,,
FALSE,travel,2,103531,0.0-2.0,,,,,TRAVEL,159.7799994,70,100,0.98,12,0.7,0.7,2.5,4,2,f,j,36,47,,,,
TRUE,travel,2,103722,0.0-2.0,,,,,TRAVEL,191.7200005,70,100,0.98,12,0.7,0.7,2.5,4,2,f,j,36,47,,,,
FALSE,travel,2,103723,0.0-2.0,,,,,TRAVEL,191.7200005,70,100,0.98,12,0.7,0.7,2.5,4,2,f,j,37,47,,,,
FALSE,travel,2,103898,0.0-2.0,,,,,TRAVEL,175.5950004,70,100,0.98,12,0.7,0.7,2.5,4,2,f,j,37,47,,,,
TRUE,travel,2,104074,0.0-2.0,,,,,TRAVEL,175.8300001,70,100,0.98,12,0.7,0.7,2.5,4,2,f,j,37,47,,,,
FALSE,travel,2,104074,0.0-2.0,,,,,TRAVEL,175.8300001,70,100,0.98,12,0.7,0.7,2.5,4,2,f,j,38,47,,,,
TRUE,travel,2,104250,0.0-2.0,,,,,TRAVEL,175.7999994,70,100,0.98,12,0.7,0.7,2.5,4,2,f,j,38,47,,,,
FALSE,travel,2,104251,0.0-2.0,,,,,TRAVEL,175.7999994,70,100,0.98,12,0.7,0.7,2.5,4,2,f,j,39,47,,,,
TRUE,travel,2,104426,0.0-2.0,,,,,TRAVEL,175.7049998,70,100,0.98,12,0.7,0.7,2.5,4,2,f,j,39,47,,,,
FALSE,travel,2,104427,0.0-2.0,,,,,TRAVEL,175.7049998,70,100,0.98,12,0.7,0.7,2.5,4,2,f,j,40,47,,,,
TRUE,travel,2,104618,0.0-2.0,,,,,TRAVEL,191.7199995,70,100,0.98,12,0.7,0.7,2.5,4,2,f,j,40,47,,,,
FALSE,travel,2,104619,0.0-2.0,,,,,TRAVEL,191.7199995,70,100,0.98,12,0.7,0.7,2.5,4,2,f,j,41,47,,,,
FALSE,travel,2,104794,0.0-2.0,,,,,TRAVEL,175.6800003,70,100,0.98,12,0.7,0.7,2.5,4,2,f,j,41,47,,,,
FALSE,travel,2,104986,0.0-2.0,,,,,TRAVEL,191.8799998,70,100,0.98,12,0.7,0.7,2.5,4,2,f,j,41,47,,,,
FALSE,travel,2,105178,0.0-2.0,,,,,TRAVEL,191.8199994,70,100,0.98,12,0.7,0.7,2.5,4,2,f,j,41,47,,,,
TRUE,travel,2,105354,0.0-2.0,,,,,TRAVEL,175.8400006,70,100,0.98,12,0.7,0.7,2.5,4,2,f,j,41,47,,,,
FALSE,travel,2,105354,0.0-2.0,,,,,TRAVEL,175.8400006,70,100,0.98,12,0.7,0.7,2.5,4,2,f,j,42,47,,,,
TRUE,travel,2,105530,0.0-2.0,,,,,TRAVEL,175.7299993,70,100,0.98,12,0.7,0.7,2.5,4,2,f,j,42,47,,,,
FALSE,travel,2,105531,0.0-2.0,,,,,TRAVEL,175.7299993,70,100,0.98,12,0.7,0.7,2.5,4,2,f,j,43,47,,,,
FALSE,travel,2,105722,0.0-2.0,,,,,TRAVEL,191.7400006,70,100,0.98,12,0.7,0.7,2.5,4,2,f,j,43,47,,,,
TRUE,travel,2,105898,0.0-2.0,,,,,TRAVEL,175.8150002,70,100,0.98,12,0.7,0.7,2.5,4,2,f,j,43,47,,,,
FALSE,travel,2,105898,0.0-2.0,,,,,TRAVEL,175.8150002,70,100,0.98,12,0.7,0.7,2.5,4,2,f,j,44,47,,,,
TRUE,travel,2,106091,0.0-2.0,,,,,TRAVEL,192.0149997,70,100,0.98,12,0.7,0.7,2.5,4,2,f,j,44,47,,,,
TRUE,travel,2,106411,0.0-2.0,,,,,Harvest,319.2650005,74,100,0.98,12,0.7,0.7,2.5,4,2,f,j,45,47,101.2567266,103.8939794,0,
FALSE,travel,2,106587,0.0-2.0,,,,,Harvest,175.3599998,74,100,0.98,12,0.7,0.7,2.5,4,2,f,j,45,47,null,101.8160998,0,
TRUE,travel,2,106763,0.0-2.0,,,,,Harvest,175.7299993,74,100,0.98,12,0.7,0.7,2.5,4,2,f,j,45,47,103.4584598,101.8160998,0,
TRUE,travel,2,106923,0.0-2.0,,,,,Harvest,159.2800003,74,100,0.98,12,0.7,0.7,2.5,4,2,f,j,45,47,101.3797901,99.77977782,0,
TRUE,travel,2,107083,0.0-2.0,,,,,Harvest,159.4050005,74,100,0.98,12,0.7,0.7,2.5,4,2,f,j,45,47,97.11883509,97.78418227,0,
TRUE,travel,2,107259,0.0-2.0,,,,,Harvest,175.365,74,100,0.98,12,0.7,0.7,2.5,4,2,f,j,45,47,94.17856735,95.82849862,0,
TRUE,travel,2,107435,0.0-2.0,,,,,Harvest,175.2900006,74,100,0.98,12,0.7,0.7,2.5,4,2,f,j,45,47,95.52426008,93.91192865,0,
TRUE,travel,2,107611,0.0-2.0,,,,,Harvest,175.4299998,74,100,0.98,12,0.7,0.7,2.5,4,2,f,j,45,47,89.98822683,92.03369008,0,
TRUE,travel,2,107772,0.0-2.0,,,,,Harvest,159.3350004,74,100,0.98,12,0.7,0.7,2.5,4,2,f,j,45,47,87.95823112,90.19301627,0,
TRUE,travel,2,107931,0.0-2.0,,,,,Harvest,158.3150001,74,100,0.98,12,0.7,0.7,2.5,4,2,f,j,45,47,90.03262343,88.38915595,0,
TRUE,travel,2,108091,0.0-2.0,,,,,Harvest,159.2649994,74,100,0.98,12,0.7,0.7,2.5,4,2,f,j,45,47,90.51482076,86.62137283,0,
FALSE,travel,2,108251,0.0-2.0,,,,,Harvest,159.31,74,100,0.98,12,0.7,0.7,2.5,4,2,f,j,45,47,null,84.88894537,0,
TRUE,travel,2,108428,0.0-2.0,,,,,Harvest,176.5350001,74,100,0.98,12,0.7,0.7,2.5,4,2,f,j,45,47,87.64289839,84.88894537,0,
FALSE,travel,2,108603,0.0-2.0,,,,,Harvest,174.5949993,74,100,0.98,12,0.7,0.7,2.5,4,2,f,j,45,47,null,83.19116647,0,
FALSE,travel,2,108762,0.0-2.0,,,,,Harvest,159.5350001,74,100,0.98,12,0.7,0.7,2.5,4,2,f,j,45,47,null,83.19116647,0,
FALSE,travel,2,108954,0.0-2.0,,,,,Harvest,191.7599998,74,100,0.98,12,0.7,0.7,2.5,4,2,f,j,45,47,null,83.19116647,0,
TRUE,travel,2,109115,0.0-2.0,,,,,Harvest,159.6949995,74,100,0.98,12,0.7,0.7,2.5,4,2,f,j,45,47,83.05520187,83.19116647,0,
TRUE,travel,2,109291,0.0-2.0,,,,,Harvest,175.45,74,100,0.98,12,0.7,0.7,2.5,4,2,f,j,45,47,81.74367977,81.52734314,0,
FALSE,travel,2,109467,0.0-2.0,,,,,Harvest,175.3700003,74,100,0.98,12,0.7,0.7,2.5,4,2,f,j,45,47,null,79.89679627,0,
FALSE,travel,2,109626,0.0-2.0,,,,,Harvest,159.6600004,74,100,0.98,12,0.7,0.7,2.5,4,2,f,j,45,47,null,79.89679627,0,
FALSE,travel,2,109802,0.0-2.0,,,,,Harvest,175.7199997,74,100,0.98,12,0.7,0.7,2.5,4,2,f,j,45,47,null,79.89679627,0,
TRUE,travel,2,109979,0.0-2.0,,,,,Harvest,175.7449992,74,100,0.98,12,0.7,0.7,2.5,4,2,f,j,45,47,81.09526249,79.89679627,0,
FALSE,travel,2,110155,0.0-2.0,,,,,Harvest,175.64,74,100,0.98,12,0.7,0.7,2.5,4,2,f,j,45,47,null,78.29886035,0,
TRUE,travel,2,110315,0.0-2.0,,,,,Harvest,159.43,74,100,0.98,12,0.7,0.7,2.5,4,2,f,j,45,47,78.07594655,78.29886035,0,
TRUE,travel,2,110476,0.0-2.0,,,,,Harvest,159.3500003,74,100,0.98,12,0.7,0.7,2.5,4,2,f,j,45,47,71.81719241,76.73288314,0,
TRUE,travel,2,110635,0.0-2.0,,,,,Harvest,158.3399996,74,100,0.98,12,0.7,0.7,2.5,4,2,f,j,45,47,75.02290736,75.19822548,0,
FALSE,travel,2,110811,0.0-2.0,,,,,Harvest,175.1950001,74,100,0.98,12,0.7,0.7,2.5,4,2,f,j,45,47,null,73.69426097,0,
TRUE,travel,2,111003,0.0-2.0,,,,,Harvest,191.7899996,74,100,0.98,12,0.7,0.7,2.5,4,2,f,j,45,47,72.91848428,73.69426097,0,
TRUE,travel,2,111163,0.0-2.0,,,,,Harvest,159.3500003,74,100,0.98,12,0.7,0.7,2.5,4,2,f,j,45,47,73.68795848,72.22037575,0,
TRUE,travel,2,111371,0.0-2.0,,,,,Harvest,207.3899992,74,100,0.98,12,0.7,0.7,2.5,4,2,f,j,45,47,69.25122229,70.77596823,0,
FALSE,travel,2,111547,0.0-2.0,,,,,Harvest,175.4600005,74,100,0.98,12,0.7,0.7,2.5,4,2,f,j,45,47,null,69.36044887,0,
TRUE,travel,2,111723,0.0-2.0,,,,,Harvest,174.9149999,74,100,0.98,12,0.7,0.7,2.5,4,2,f,j,45,47,72.05429551,69.36044887,0,
TRUE,travel,2,111899,0.0-2.0,,,,,Harvest,175.2899997,74,100,0.98,12,0.7,0.7,2.5,4,2,f,j,45,47,67.3093325,67.97323989,0,
,travel,2,112091,0.0-2.0,,,,,Harvest,191.6149994,70,100,0.98,12,0.7,0.7,2.5,4,2,f,j,46,59,null,,1,null
TRUE,travel,2,112266,0.0-2.0,,,,,TRAVEL,175.2350004,70,100,0.98,12,0.7,0.7,2.5,4,2,f,j,46,59,,,,
FALSE,travel,2,112266,0.0-2.0,,,,,TRAVEL,175.2350004,70,100,0.98,12,0.7,0.7,2.5,4,2,f,j,47,59,,,,
TRUE,travel,2,112458,0.0-2.0,,,,,TRAVEL,191.745,70,100,0.98,12,0.7,0.7,2.5,4,2,f,j,47,59,,,,
FALSE,travel,2,112458,0.0-2.0,,,,,TRAVEL,191.745,70,100,0.98,12,0.7,0.7,2.5,4,2,f,j,48,59,,,,
TRUE,travel,2,112650,0.0-2.0,,,,,TRAVEL,191.695,70,100,0.98,12,0.7,0.7,2.5,4,2,f,j,48,59,,,,
FALSE,travel,2,112650,0.0-2.0,,,,,TRAVEL,191.695,70,100,0.98,12,0.7,0.7,2.5,4,2,f,j,49,59,,,,
TRUE,travel,2,112810,0.0-2.0,,,,,TRAVEL,159.8199997,70,100,0.98,12,0.7,0.7,2.5,4,2,f,j,49,59,,,,
FALSE,travel,2,112811,0.0-2.0,,,,,TRAVEL,159.8199997,70,100,0.98,12,0.7,0.7,2.5,4,2,f,j,50,59,,,,
TRUE,travel,2,112986,0.0-2.0,,,,,TRAVEL,175.6649995,70,100,0.98,12,0.7,0.7,2.5,4,2,f,j,50,59,,,,
FALSE,travel,2,112986,0.0-2.0,,,,,TRAVEL,175.6649995,70,100,0.98,12,0.7,0.7,2.5,4,2,f,j,51,59,,,,
TRUE,travel,2,113162,0.0-2.0,,,,,TRAVEL,175.8099999,70,100,0.98,12,0.7,0.7,2.5,4,2,f,j,51,59,,,,
FALSE,travel,2,113163,0.0-2.0,,,,,TRAVEL,175.8099999,70,100,0.98,12,0.7,0.7,2.5,4,2,f,j,52,59,,,,
FALSE,travel,2,113338,0.0-2.0,,,,,TRAVEL,175.7750008,70,100,0.98,12,0.7,0.7,2.5,4,2,f,j,52,59,,,,
TRUE,travel,2,113530,0.0-2.0,,,,,TRAVEL,191.6099992,70,100,0.98,12,0.7,0.7,2.5,4,2,f,j,52,59,,,,
FALSE,travel,2,113530,0.0-2.0,,,,,TRAVEL,191.6099992,70,100,0.98,12,0.7,0.7,2.5,4,2,f,j,53,59,,,,
TRUE,travel,2,113722,0.0-2.0,,,,,TRAVEL,191.7749997,70,100,0.98,12,0.7,0.7,2.5,4,2,f,j,53,59,,,,
FALSE,travel,2,113722,0.0-2.0,,,,,TRAVEL,191.7749997,70,100,0.98,12,0.7,0.7,2.5,4,2,f,j,54,59,,,,
TRUE,travel,2,113914,0.0-2.0,,,,,TRAVEL,191.7500002,70,100,0.98,12,0.7,0.7,2.5,4,2,f,j,54,59,,,,
FALSE,travel,2,113914,0.0-2.0,,,,,TRAVEL,191.7500002,70,100,0.98,12,0.7,0.7,2.5,4,2,f,j,55,59,,,,
TRUE,travel,2,114106,0.0-2.0,,,,,TRAVEL,191.7300001,70,100,0.98,12,0.7,0.7,2.5,4,2,f,j,55,59,,,,
FALSE,travel,2,114106,0.0-2.0,,,,,TRAVEL,191.7300001,70,100,0.98,12,0.7,0.7,2.5,4,2,f,j,56,59,,,,
TRUE,travel,2,114282,0.0-2.0,,,,,TRAVEL,175.6899999,70,100,0.98,12,0.7,0.7,2.5,4,2,f,j,56,59,,,,
TRUE,travel,2,114651,0.0-2.0,,,,,Harvest,367.5349997,74,100,0.98,12,0.7,0.7,2.5,4,2,f,j,57,59,99.3677037,98.57304186,0,
FALSE,travel,2,114827,0.0-2.0,,,,,Harvest,175.4750004,74,100,0.98,12,0.7,0.7,2.5,4,2,f,j,57,59,null,96.60158103,0,
TRUE,travel,2,115003,0.0-2.0,,,,,Harvest,175.7849995,74,100,0.98,12,0.7,0.7,2.5,4,2,f,j,57,59,90.24039009,96.60158103,0,
TRUE,travel,2,115179,0.0-2.0,,,,,Harvest,175.2150003,74,100,0.98,12,0.7,0.7,2.5,4,2,f,j,57,59,95.2746824,94.6695494,0,
FALSE,travel,2,115354,0.0-2.0,,,,,Harvest,175.3750006,74,100,0.98,12,0.7,0.7,2.5,4,2,f,j,57,59,null,92.77615842,0,
FALSE,travel,2,115547,0.0-2.0,,,,,Harvest,191.7299991,74,100,0.98,12,0.7,0.7,2.5,4,2,f,j,57,59,null,92.77615842,0,
TRUE,travel,2,115723,0.0-2.0,,,,,Harvest,174.5600002,74,100,0.98,12,0.7,0.7,2.5,4,2,f,j,57,59,93.26742861,92.77615842,0,
TRUE,travel,2,115883,0.0-2.0,,,,,Harvest,159.3249999,74,100,0.98,12,0.7,0.7,2.5,4,2,f,j,57,59,90.19257996,90.92063525,0,
FALSE,travel,2,116027,0.0-2.0,,,,,Harvest,143.4399998,74,100,0.98,12,0.7,0.7,2.5,4,2,f,j,57,59,null,89.10222254,0,
TRUE,travel,2,116203,0.0-2.0,,,,,Harvest,175.6950002,74,100,0.98,12,0.7,0.7,2.5,4,2,f,j,57,59,89.18082191,89.10222254,0,
TRUE,travel,2,116379,0.0-2.0,,,,,Harvest,175.295,74,100,0.98,12,0.7,0.7,2.5,4,2,f,j,57,59,86.16559358,87.32017809,0,
FALSE,travel,2,116538,0.0-2.0,,,,,Harvest,159.3450001,74,100,0.98,12,0.7,0.7,2.5,4,2,f,j,57,59,null,85.57377453,0,
TRUE,travel,2,116699,0.0-2.0,,,,,Harvest,159.8100001,74,100,0.98,12,0.7,0.7,2.5,4,2,f,j,57,59,85.83257459,85.57377453,0,
TRUE,travel,2,116891,0.0-2.0,,,,,Harvest,191.2949998,74,100,0.98,12,0.7,0.7,2.5,4,2,f,j,57,59,82.94697574,83.86229904,0,
TRUE,travel,2,117067,0.0-2.0,,,,,Harvest,175.3700003,74,100,0.98,12,0.7,0.7,2.5,4,2,f,j,57,59,81.17966834,82.18505306,0,
FALSE,travel,2,117259,0.0-2.0,,,,,Harvest,191.5099993,74,100,0.98,12,0.7,0.7,2.5,4,2,f,j,57,59,null,80.541352,0,
TRUE,travel,2,117451,0.0-2.0,,,,,Harvest,191.6850004,74,100,0.98,12,0.7,0.7,2.5,4,2,f,j,57,59,87.4448239,80.541352,0,
TRUE,travel,2,117595,0.0-2.0,,,,,Harvest,143.3349997,74,100,0.98,12,0.7,0.7,2.5,4,2,f,j,57,59,83.25244262,78.93052496,0,
TRUE,travel,2,117771,0.0-2.0,,,,,Harvest,175.3000002,74,100,0.98,12,0.7,0.7,2.5,4,2,f,j,57,59,77.42979916,77.35191446,0,
TRUE,travel,2,117947,0.0-2.0,,,,,Harvest,175.4350001,74,100,0.98,12,0.7,0.7,2.5,4,2,f,j,57,59,72.85017711,75.80487617,0,
TRUE,travel,2,118139,0.0-2.0,,,,,Harvest,191.3949996,74,100,0.98,12,0.7,0.7,2.5,4,2,f,j,57,59,76.63386107,74.28877865,0,
FALSE,travel,2,118300,0.0-2.0,,,,,Harvest,159.2999995,74,100,0.98,12,0.7,0.7,2.5,4,2,f,j,57,59,null,72.80300307,0,
TRUE,travel,2,118507,0.0-2.0,,,,,Harvest,206.6249996,74,100,0.98,12,0.7,0.7,2.5,4,2,f,j,57,59,68.94340405,72.80300307,0,
TRUE,travel,2,118715,0.0-2.0,,,,,Harvest,207.2950006,74,100,0.98,12,0.7,0.7,2.5,4,2,f,j,57,59,67.3545585,71.34694301,0,
TRUE,travel,2,118891,0.0-2.0,,,,,Harvest,175.3049996,74,100,0.98,12,0.7,0.7,2.5,4,2,f,j,57,59,74.9881796,69.92000415,0,
,travel,2,119083,0.0-2.0,,,,,Harvest,191.4450005,70,100,0.98,12,0.7,0.7,2.5,4,2,f,j,58,71,null,,1,null
TRUE,travel,2,119258,0.0-2.0,,,,,TRAVEL,175.3549995,70,100,0.98,12,0.7,0.7,2.5,4,2,f,j,58,71,,,,
FALSE,travel,2,119258,0.0-2.0,,,,,TRAVEL,175.3549995,70,100,0.98,12,0.7,0.7,2.5,4,2,f,j,59,71,,,,
TRUE,travel,2,119434,0.0-2.0,,,,,TRAVEL,175.76,70,100,0.98,12,0.7,0.7,2.5,4,2,f,j,59,71,,,,
FALSE,travel,2,119435,0.0-2.0,,,,,TRAVEL,175.76,70,100,0.98,12,0.7,0.7,2.5,4,2,f,j,60,71,,,,
FALSE,travel,2,119594,0.0-2.0,,,,,TRAVEL,159.7750001,70,100,0.98,12,0.7,0.7,2.5,4,2,f,j,60,71,,,,
TRUE,travel,2,119770,0.0-2.0,,,,,TRAVEL,175.7450001,70,100,0.98,12,0.7,0.7,2.5,4,2,f,j,60,71,,,,
FALSE,travel,2,119771,0.0-2.0,,,,,TRAVEL,175.7450001,70,100,0.98,12,0.7,0.7,2.5,4,2,f,j,61,71,,,,
TRUE,travel,2,119930,0.0-2.0,,,,,TRAVEL,159.6999997,70,100,0.98,12,0.7,0.7,2.5,4,2,f,j,61,71,,,,
FALSE,travel,2,119930,0.0-2.0,,,,,TRAVEL,159.6999997,70,100,0.98,12,0.7,0.7,2.5,4,2,f,j,62,71,,,,
TRUE,travel,2,120107,0.0-2.0,,,,,TRAVEL,175.6899999,70,100,0.98,12,0.7,0.7,2.5,4,2,f,j,62,71,,,,
FALSE,travel,2,120107,0.0-2.0,,,,,TRAVEL,175.6899999,70,100,0.98,12,0.7,0.7,2.5,4,2,f,j,63,71,,,,
TRUE,travel,2,120315,0.0-2.0,,,,,TRAVEL,207.7550003,70,100,0.98,12,0.7,0.7,2.5,4,2,f,j,63,71,,,,
FALSE,travel,2,120315,0.0-2.0,,,,,TRAVEL,207.7550003,70,100,0.98,12,0.7,0.7,2.5,4,2,f,j,64,71,,,,
TRUE,travel,2,120491,0.0-2.0,,,,,TRAVEL,175.7250009,70,100,0.98,12,0.7,0.7,2.5,4,2,f,j,64,71,,,,
FALSE,travel,2,120491,0.0-2.0,,,,,TRAVEL,175.7250009,70,100,0.98,12,0.7,0.7,2.5,4,2,f,j,65,71,,,,
FALSE,travel,2,120668,0.0-2.0,,,,,TRAVEL,176.2600001,70,100,0.98,12,0.7,0.7,2.5,4,2,f,j,65,71,,,,
TRUE,travel,2,120827,0.0-2.0,,,,,TRAVEL,159.3800001,70,100,0.98,12,0.7,0.7,2.5,4,2,f,j,65,71,,,,
FALSE,travel,2,120827,0.0-2.0,,,,,TRAVEL,159.3800001,70,100,0.98,12,0.7,0.7,2.5,4,2,f,j,66,71,,,,
TRUE,travel,2,120987,0.0-2.0,,,,,TRAVEL,159.6449995,70,100,0.98,12,0.7,0.7,2.5,4,2,f,j,66,71,,,,
FALSE,travel,2,120987,0.0-2.0,,,,,TRAVEL,159.6449995,70,100,0.98,12,0.7,0.7,2.5,4,2,f,j,67,71,,,,
TRUE,travel,2,121163,0.0-2.0,,,,,TRAVEL,175.8349994,70,100,0.98,12,0.7,0.7,2.5,4,2,f,j,67,71,,,,
FALSE,travel,2,121163,0.0-2.0,,,,,TRAVEL,175.8349994,70,100,0.98,12,0.7,0.7,2.5,4,2,f,j,68,71,,,,
FALSE,travel,2,121339,0.0-2.0,,,,,TRAVEL,175.6899999,70,100,0.98,12,0.7,0.7,2.5,4,2,f,j,68,71,,,,
FALSE,travel,2,121547,0.0-2.0,,,,,TRAVEL,207.8250004,70,100,0.98,12,0.7,0.7,2.5,4,2,f,j,68,71,,,,
TRUE,travel,2,121707,0.0-2.0,,,,,TRAVEL,159.8399999,70,100,0.98,12,0.7,0.7,2.5,4,2,f,j,68,71,,,,
FALSE,travel,2,122123,0.0-2.0,,,,,Harvest,415.6049993,74,100,0.98,12,0.7,0.7,2.5,4,2,f,j,69,71,null,96.11994461,0,
TRUE,travel,2,122284,0.0-2.0,,,,,Harvest,159.7649995,74,100,0.98,12,0.7,0.7,2.5,4,2,f,j,69,71,98.31582863,96.11994461,0,
TRUE,travel,2,122444,0.0-2.0,,,,,Harvest,159.2050008,74,100,0.98,12,0.7,0.7,2.5,4,2,f,j,69,71,93.94079976,94.19754572,0,
TRUE,travel,2,122604,0.0-2.0,,,,,Harvest,159.4949998,74,100,0.98,12,0.7,0.7,2.5,4,2,f,j,69,71,91.47833186,92.3135948,0,
TRUE,travel,2,122780,0.0-2.0,,,,,Harvest,175.3049996,74,100,0.98,12,0.7,0.7,2.5,4,2,f,j,69,71,93.25102347,90.46732291,0,
FALSE,travel,2,122939,0.0-2.0,,,,,Harvest,159.4549995,74,100,0.98,12,0.7,0.7,2.5,4,2,f,j,69,71,null,88.65797645,0,
FALSE,travel,2,123067,0.0-2.0,,,,,Harvest,127.6599998,74,100,0.98,12,0.7,0.7,2.5,4,2,f,j,69,71,null,88.65797645,0,
TRUE,travel,2,123228,0.0-2.0,,,,,Harvest,159.74,74,100,0.98,12,0.7,0.7,2.5,4,2,f,j,69,71,86.76773622,88.65797645,0,
TRUE,travel,2,123532,0.0-2.0,,,,,Harvest,303.4549998,74,100,0.98,12,0.7,0.7,2.5,4,2,f,j,69,71,88.28915924,86.88481692,0,
,travel,2,123601,0.0-2.0,,,,,,,,,,,,,,,,,,,,,,,
,evan-display-text,3,131132,0.0-3.0,Traveling to a new environment,"Travel key: A, Harvest key: J",,7526.965,,,,,,,,,,,,,,,,,,,
TRUE,travel,4,132235,0.0-4.0,,,,,TRAVEL,1098.58,65,100,0.98,30,0.7,0.7,0.5,4,2.5,a,j,1,33,,,,
FALSE,travel,4,132235,0.0-4.0,,,,,TRAVEL,1098.58,65,100,0.98,30,0.7,0.7,0.5,4,2.5,a,j,2,33,,,,
FALSE,travel,4,132395,0.0-4.0,,,,,TRAVEL,159.6250003,65,100,0.98,30,0.7,0.7,0.5,4,2.5,a,j,2,33,,,,
TRUE,travel,4,132571,0.0-4.0,,,,,TRAVEL,175.7649994,65,100,0.98,30,0.7,0.7,0.5,4,2.5,a,j,2,33,,,,
FALSE,travel,4,132571,0.0-4.0,,,,,TRAVEL,175.7649994,65,100,0.98,30,0.7,0.7,0.5,4,2.5,a,j,3,33,,,,
TRUE,travel,4,132763,0.0-4.0,,,,,TRAVEL,191.7399997,65,100,0.98,30,0.7,0.7,0.5,4,2.5,a,j,3,33,,,,
FALSE,travel,4,132763,0.0-4.0,,,,,TRAVEL,191.7399997,65,100,0.98,30,0.7,0.7,0.5,4,2.5,a,j,4,33,,,,
TRUE,travel,4,132987,0.0-4.0,,,,,TRAVEL,223.6899994,65,100,0.98,30,0.7,0.7,0.5,4,2.5,a,j,4,33,,,,
FALSE,travel,4,132987,0.0-4.0,,,,,TRAVEL,223.6899994,65,100,0.98,30,0.7,0.7,0.5,4,2.5,a,j,5,33,,,,
TRUE,travel,4,133195,0.0-4.0,,,,,TRAVEL,207.6099999,65,100,0.98,30,0.7,0.7,0.5,4,2.5,a,j,5,33,,,,
FALSE,travel,4,133195,0.0-4.0,,,,,TRAVEL,207.6099999,65,100,0.98,30,0.7,0.7,0.5,4,2.5,a,j,6,33,,,,
TRUE,travel,4,133403,0.0-4.0,,,,,TRAVEL,207.6300001,65,100,0.98,30,0.7,0.7,0.5,4,2.5,a,j,6,33,,,,
FALSE,travel,4,133403,0.0-4.0,,,,,TRAVEL,207.6300001,65,100,0.98,30,0.7,0.7,0.5,4,2.5,a,j,7,33,,,,
TRUE,travel,4,133595,0.0-4.0,,,,,TRAVEL,191.6900007,65,100,0.98,30,0.7,0.7,0.5,4,2.5,a,j,7,33,,,,
FALSE,travel,4,133595,0.0-4.0,,,,,TRAVEL,191.6900007,65,100,0.98,30,0.7,0.7,0.5,4,2.5,a,j,8,33,,,,
FALSE,travel,4,133771,0.0-4.0,,,,,TRAVEL,175.7000005,65,100,0.98,30,0.7,0.7,0.5,4,2.5,a,j,8,33,,,,
TRUE,travel,4,133947,0.0-4.0,,,,,TRAVEL,175.915,65,100,0.98,30,0.7,0.7,0.5,4,2.5,a,j,8,33,,,,
FALSE,travel,4,133947,0.0-4.0,,,,,TRAVEL,175.915,65,100,0.98,30,0.7,0.7,0.5,4,2.5,a,j,9,33,,,,
TRUE,travel,4,134139,0.0-4.0,,,,,TRAVEL,191.6749999,65,100,0.98,30,0.7,0.7,0.5,4,2.5,a,j,9,33,,,,
FALSE,travel,4,134139,0.0-4.0,,,,,TRAVEL,191.6749999,65,100,0.98,30,0.7,0.7,0.5,4,2.5,a,j,10,33,,,,
TRUE,travel,4,134315,0.0-4.0,,,,,TRAVEL,175.7049998,65,100,0.98,30,0.7,0.7,0.5,4,2.5,a,j,10,33,,,,
FALSE,travel,4,134315,0.0-4.0,,,,,TRAVEL,175.7049998,65,100,0.98,30,0.7,0.7,0.5,4,2.5,a,j,11,33,,,,
TRUE,travel,4,134507,0.0-4.0,,,,,TRAVEL,191.78,65,100,0.98,30,0.7,0.7,0.5,4,2.5,a,j,11,33,,,,
FALSE,travel,4,134507,0.0-4.0,,,,,TRAVEL,191.78,65,100,0.98,30,0.7,0.7,0.5,4,2.5,a,j,12,33,,,,
FALSE,travel,4,134699,0.0-4.0,,,,,TRAVEL,191.7400006,65,100,0.98,30,0.7,0.7,0.5,4,2.5,a,j,12,33,,,,
TRUE,travel,4,134907,0.0-4.0,,,,,TRAVEL,207.7450007,65,100,0.98,30,0.7,0.7,0.5,4,2.5,a,j,12,33,,,,
FALSE,travel,4,134907,0.0-4.0,,,,,TRAVEL,207.7450007,65,100,0.98,30,0.7,0.7,0.5,4,2.5,a,j,13,33,,,,
TRUE,travel,4,135115,0.0-4.0,,,,,TRAVEL,207.7900004,65,100,0.98,30,0.7,0.7,0.5,4,2.5,a,j,13,33,,,,
FALSE,travel,4,135115,0.0-4.0,,,,,TRAVEL,207.7900004,65,100,0.98,30,0.7,0.7,0.5,4,2.5,a,j,14,33,,,,
TRUE,travel,4,135307,0.0-4.0,,,,,TRAVEL,191.7049997,65,100,0.98,30,0.7,0.7,0.5,4,2.5,a,j,14,33,,,,
FALSE,travel,4,135307,0.0-4.0,,,,,TRAVEL,191.7049997,65,100,0.98,30,0.7,0.7,0.5,4,2.5,a,j,15,33,,,,
FALSE,travel,4,135499,0.0-4.0,,,,,TRAVEL,191.7099999,65,100,0.98,30,0.7,0.7,0.5,4,2.5,a,j,15,33,,,,
FALSE,travel,4,135707,0.0-4.0,,,,,TRAVEL,207.8050002,65,100,0.98,30,0.7,0.7,0.5,4,2.5,a,j,15,33,,,,
TRUE,travel,4,135883,0.0-4.0,,,,,TRAVEL,175.8900005,65,100,0.98,30,0.7,0.7,0.5,4,2.5,a,j,15,33,,,,
FALSE,travel,4,135883,0.0-4.0,,,,,TRAVEL,175.8900005,65,100,0.98,30,0.7,0.7,0.5,4,2.5,a,j,16,33,,,,
TRUE,travel,4,136075,0.0-4.0,,,,,TRAVEL,191.7500002,65,100,0.98,30,0.7,0.7,0.5,4,2.5,a,j,16,33,,,,
FALSE,travel,4,136075,0.0-4.0,,,,,TRAVEL,191.7500002,65,100,0.98,30,0.7,0.7,0.5,4,2.5,a,j,17,33,,,,
TRUE,travel,4,136315,0.0-4.0,,,,,TRAVEL,239.7500006,65,100,0.98,30,0.7,0.7,0.5,4,2.5,a,j,17,33,,,,
FALSE,travel,4,136315,0.0-4.0,,,,,TRAVEL,239.7500006,65,100,0.98,30,0.7,0.7,0.5,4,2.5,a,j,18,33,,,,
FALSE,travel,4,136523,0.0-4.0,,,,,TRAVEL,207.7049995,65,100,0.98,30,0.7,0.7,0.5,4,2.5,a,j,18,33,,,,
TRUE,travel,4,136731,0.0-4.0,,,,,TRAVEL,207.8399993,65,100,0.98,30,0.7,0.7,0.5,4,2.5,a,j,18,33,,,,
FALSE,travel,4,136731,0.0-4.0,,,,,TRAVEL,207.8399993,65,100,0.98,30,0.7,0.7,0.5,4,2.5,a,j,19,33,,,,
TRUE,travel,4,137035,0.0-4.0,,,,,TRAVEL,303.7700001,65,100,0.98,30,0.7,0.7,0.5,4,2.5,a,j,19,33,,,,
FALSE,travel,4,137035,0.0-4.0,,,,,TRAVEL,303.7700001,65,100,0.98,30,0.7,0.7,0.5,4,2.5,a,j,20,33,,,,
TRUE,travel,4,137307,0.0-4.0,,,,,TRAVEL,271.8599997,65,100,0.98,30,0.7,0.7,0.5,4,2.5,a,j,20,33,,,,
FALSE,travel,4,137307,0.0-4.0,,,,,TRAVEL,271.8599997,65,100,0.98,30,0.7,0.7,0.5,4,2.5,a,j,21,33,,,,
TRUE,travel,4,137515,0.0-4.0,,,,,TRAVEL,207.5550007,65,100,0.98,30,0.7,0.7,0.5,4,2.5,a,j,21,33,,,,
FALSE,travel,4,137515,0.0-4.0,,,,,TRAVEL,207.5550007,65,100,0.98,30,0.7,0.7,0.5,4,2.5,a,j,22,33,,,,
TRUE,travel,4,137739,0.0-4.0,,,,,TRAVEL,223.7499999,65,100,0.98,30,0.7,0.7,0.5,4,2.5,a,j,22,33,,,,
FALSE,travel,4,137739,0.0-4.0,,,,,TRAVEL,223.7499999,65,100,0.98,30,0.7,0.7,0.5,4,2.5,a,j,23,33,,,,
FALSE,travel,4,137963,0.0-4.0,,,,,TRAVEL,223.6250006,65,100,0.98,30,0.7,0.7,0.5,4,2.5,a,j,23,33,,,,
FALSE,travel,4,138155,0.0-4.0,,,,,TRAVEL,191.8649999,65,100,0.98,30,0.7,0.7,0.5,4,2.5,a,j,23,33,,,,
TRUE,travel,4,138347,0.0-4.0,,,,,TRAVEL,191.815,65,100,0.98,30,0.7,0.7,0.5,4,2.5,a,j,23,33,,,,
FALSE,travel,4,138347,0.0-4.0,,,,,TRAVEL,191.815,65,100,0.98,30,0.7,0.7,0.5,4,2.5,a,j,24,33,,,,
TRUE,travel,4,138524,0.0-4.0,,,,,TRAVEL,176.6599994,65,100,0.98,30,0.7,0.7,0.5,4,2.5,a,j,24,33,,,,
FALSE,travel,4,138524,0.0-4.0,,,,,TRAVEL,176.6599994,65,100,0.98,30,0.7,0.7,0.5,4,2.5,a,j,25,33,,,,
FALSE,travel,4,138747,0.0-4.0,,,,,TRAVEL,222.7650005,65,100,0.98,30,0.7,0.7,0.5,4,2.5,a,j,25,33,,,,
FALSE,travel,4,138923,0.0-4.0,,,,,TRAVEL,175.8899996,65,100,0.98,30,0.7,0.7,0.5,4,2.5,a,j,25,33,,,,
TRUE,travel,4,139131,0.0-4.0,,,,,TRAVEL,207.8050002,65,100,0.98,30,0.7,0.7,0.5,4,2.5,a,j,25,33,,,,
FALSE,travel,4,139131,0.0-4.0,,,,,TRAVEL,207.8050002,65,100,0.98,30,0.7,0.7,0.5,4,2.5,a,j,26,33,,,,
FALSE,travel,4,139339,0.0-4.0,,,,,TRAVEL,207.8,65,100,0.98,30,0.7,0.7,0.5,4,2.5,a,j,26,33,,,,
TRUE,travel,4,139547,0.0-4.0,,,,,TRAVEL,207.8049993,65,100,0.98,30,0.7,0.7,0.5,4,2.5,a,j,26,33,,,,
FALSE,travel,4,139547,0.0-4.0,,,,,TRAVEL,207.8049993,65,100,0.98,30,0.7,0.7,0.5,4,2.5,a,j,27,33,,,,
TRUE,travel,4,139755,0.0-4.0,,,,,TRAVEL,207.715,65,100,0.98,30,0.7,0.7,0.5,4,2.5,a,j,27,33,,,,
FALSE,travel,4,139755,0.0-4.0,,,,,TRAVEL,207.715,65,100,0.98,30,0.7,0.7,0.5,4,2.5,a,j,28,33,,,,
TRUE,travel,4,139963,0.0-4.0,,,,,TRAVEL,207.6549996,65,100,0.98,30,0.7,0.7,0.5,4,2.5,a,j,28,33,,,,
FALSE,travel,4,139963,0.0-4.0,,,,,TRAVEL,207.6549996,65,100,0.98,30,0.7,0.7,0.5,4,2.5,a,j,29,33,,,,
TRUE,travel,4,140171,0.0-4.0,,,,,TRAVEL,207.7749996,65,100,0.98,30,0.7,0.7,0.5,4,2.5,a,j,29,33,,,,
FALSE,travel,4,140171,0.0-4.0,,,,,TRAVEL,207.7749996,65,100,0.98,30,0.7,0.7,0.5,4,2.5,a,j,30,33,,,,
FALSE,travel,4,140379,0.0-4.0,,,,,TRAVEL,207.7450007,65,100,0.98,30,0.7,0.7,0.5,4,2.5,a,j,30,33,,,,
FALSE,travel,4,140587,0.0-4.0,,,,,TRAVEL,207.8100005,65,100,0.98,30,0.7,0.7,0.5,4,2.5,a,j,30,33,,,,
TRUE,travel,4,140811,0.0-4.0,,,,,TRAVEL,223.9449993,65,100,0.98,30,0.7,0.7,0.5,4,2.5,a,j,30,33,,,,
TRUE,travel,4,141452,0.0-4.0,,,,,Harvest,639.3549992,74,100,0.98,30,0.7,0.7,0.5,4,2.5,a,j,31,33,106.3500629,105.7694909,0,
TRUE,travel,4,141644,0.0-4.0,,,,,Harvest,190.8999998,74,100,0.98,30,0.7,0.7,0.5,4,2.5,a,j,31,33,103.8409528,103.6541011,0,
FALSE,travel,4,141819,0.0-4.0,,,,,Harvest,175.3599998,74,100,0.98,30,0.7,0.7,0.5,4,2.5,a,j,31,33,null,101.5810191,0,
TRUE,travel,4,141980,0.0-4.0,,,,,Harvest,159.6749993,74,100,0.98,30,0.7,0.7,0.5,4,2.5,a,j,31,33,101.8595133,101.5810191,0,
FALSE,travel,4,142155,0.0-4.0,,,,,Harvest,175.2899997,74,100,0.98,30,0.7,0.7,0.5,4,2.5,a,j,31,33,null,99.5493987,0,
TRUE,travel,4,142300,0.0-4.0,,,,,Harvest,143.77,74,100,0.98,30,0.7,0.7,0.5,4,2.5,a,j,31,33,99.621866,99.5493987,0,
TRUE,travel,4,142460,0.0-4.0,,,,,Harvest,159.3450001,74,100,0.98,30,0.7,0.7,0.5,4,2.5,a,j,31,33,97.50423755,97.55841073,0,
TRUE,travel,4,142636,0.0-4.0,,,,,Harvest,175.52,74,100,0.98,30,0.7,0.7,0.5,4,2.5,a,j,31,33,95.67654317,95.60724252,0,
TRUE,travel,4,142795,0.0-4.0,,,,,Harvest,159.1050001,74,100,0.98,30,0.7,0.7,0.5,4,2.5,a,j,31,33,94.00983417,93.69509767,0,
TRUE,travel,4,142974,0.0-4.0,,,,,Harvest,175.7550007,74,100,0.98,30,0.7,0.7,0.5,4,2.5,a,j,31,33,91.69714814,91.82119571,0,
TRUE,travel,4,143148,0.0-4.0,,,,,Harvest,173.2349992,74,100,0.98,30,0.7,0.7,0.5,4,2.5,a,j,31,33,90.0932539,89.9847718,0,
TRUE,travel,4,143324,0.0-4.0,,,,,Harvest,175.2999993,74,100,0.98,30,0.7,0.7,0.5,4,2.5,a,j,31,33,87.80424088,88.18507636,0,
TRUE,travel,4,143500,0.0-4.0,,,,,Harvest,175.4099997,74,100,0.98,30,0.7,0.7,0.5,4,2.5,a,j,31,33,87.32526845,86.42137484,0,
FALSE,travel,4,143675,0.0-4.0,,,,,Harvest,175.3700003,74,100,0.98,30,0.7,0.7,0.5,4,2.5,a,j,31,33,null,84.69294734,0,
FALSE,travel,4,143835,0.0-4.0,,,,,Harvest,159.6750002,74,100,0.98,30,0.7,0.7,0.5,4,2.5,a,j,31,33,null,84.69294734,0,
TRUE,travel,4,144012,0.0-4.0,,,,,Harvest,175.7700006,74,100,0.98,30,0.7,0.7,0.5,4,2.5,a,j,31,33,84.64576551,84.69294734,0,
TRUE,travel,4,144187,0.0-4.0,,,,,Harvest,175.3150001,74,100,0.98,30,0.7,0.7,0.5,4,2.5,a,j,31,33,83.50756528,82.99908839,0,
FALSE,travel,4,144363,0.0-4.0,,,,,Harvest,175.4350001,74,100,0.98,30,0.7,0.7,0.5,4,2.5,a,j,31,33,null,81.33910662,0,
TRUE,travel,4,144540,0.0-4.0,,,,,Harvest,175.76,74,100,0.98,30,0.7,0.7,0.5,4,2.5,a,j,31,33,81.39209478,81.33910662,0,
TRUE,travel,4,144732,0.0-4.0,,,,,Harvest,191.2699994,74,100,0.98,30,0.7,0.7,0.5,4,2.5,a,j,31,33,80.18548938,79.71232449,0,
TRUE,travel,4,144923,0.0-4.0,,,,,Harvest,191.2000002,74,100,0.98,30,0.7,0.7,0.5,4,2.5,a,j,31,33,77.85359363,78.118078,0,
FALSE,travel,4,145131,0.0-4.0,,,,,Harvest,207.6650001,74,100,0.98,30,0.7,0.7,0.5,4,2.5,a,j,31,33,null,76.55571644,0,
FALSE,travel,4,145307,0.0-4.0,,,,,Harvest,175.9449998,74,100,0.98,30,0.7,0.7,0.5,4,2.5,a,j,31,33,null,76.55571644,0,
TRUE,travel,4,145499,0.0-4.0,,,,,Harvest,191.6399999,74,100,0.98,30,0.7,0.7,0.5,4,2.5,a,j,31,33,75.90853983,76.55571644,0,
TRUE,travel,4,145691,0.0-4.0,,,,,Harvest,191.3649999,74,100,0.98,30,0.7,0.7,0.5,4,2.5,a,j,31,33,75.16073051,75.02460211,0,
TRUE,travel,4,145884,0.0-4.0,,,,,Harvest,191.745,74,100,0.98,30,0.7,0.7,0.5,4,2.5,a,j,31,33,74.57667726,73.52411007,0,
TRUE,travel,4,146059,0.0-4.0,,,,,Harvest,175.1649994,74,100,0.98,30,0.7,0.7,0.5,4,2.5,a,j,31,33,71.72451674,72.05362787,0,
TRUE,travel,4,146236,0.0-4.0,,,,,Harvest,175.8099999,74,100,0.98,30,0.7,0.7,0.5,4,2.5,a,j,31,33,70.75505924,70.61255531,0,
FALSE,travel,4,146427,0.0-4.0,,,,,Harvest,191.3100006,74,100,0.98,30,0.7,0.7,0.5,4,2.5,a,j,31,33,null,69.20030421,0,
TRUE,travel,4,146636,0.0-4.0,,,,,Harvest,207.9300005,74,100,0.98,30,0.7,0.7,0.5,4,2.5,a,j,31,33,69.04291912,69.20030421,0,
FALSE,travel,4,146827,0.0-4.0,,,,,Harvest,191.4849998,74,100,0.98,30,0.7,0.7,0.5,4,2.5,a,j,31,33,null,67.81629812,0,
TRUE,travel,4,147004,0.0-4.0,,,,,Harvest,175.7450001,74,100,0.98,30,0.7,0.7,0.5,4,2.5,a,j,31,33,68.26405942,67.81629812,0,
TRUE,travel,4,147180,0.0-4.0,,,,,Harvest,175.3099998,74,100,0.98,30,0.7,0.7,0.5,4,2.5,a,j,31,33,67.41846277,66.45997216,0,
TRUE,travel,4,147356,0.0-4.0,,,,,Harvest,175.3900005,74,100,0.98,30,0.7,0.7,0.5,4,2.5,a,j,31,33,65.17368653,65.13077272,0,
FALSE,travel,4,147547,0.0-4.0,,,,,Harvest,191.2549995,74,100,0.98,30,0.7,0.7,0.5,4,2.5,a,j,31,33,null,63.82815726,0,
TRUE,travel,4,147692,0.0-4.0,,,,,Harvest,143.8100003,74,100,0.98,30,0.7,0.7,0.5,4,2.5,a,j,31,33,63.21490583,63.82815726,0,
TRUE,travel,4,147868,0.0-4.0,,,,,Harvest,175.33,74,100,0.98,30,0.7,0.7,0.5,4,2.5,a,j,31,33,62.17896299,62.55159412,0,
FALSE,travel,4,148043,0.0-4.0,,,,,Harvest,175.4399994,74,100,0.98,30,0.7,0.7,0.5,4,2.5,a,j,31,33,null,61.30056223,0,
TRUE,travel,4,148203,0.0-4.0,,,,,Harvest,159.5799997,74,100,0.98,30,0.7,0.7,0.5,4,2.5,a,j,31,33,60.7573214,61.30056223,0,
TRUE,travel,4,148396,0.0-4.0,,,,,Harvest,192.2200006,74,100,0.98,30,0.7,0.7,0.5,4,2.5,a,j,31,33,60.06981284,60.07455099,0,
TRUE,travel,4,148588,0.0-4.0,,,,,Harvest,190.68,74,100,0.98,30,0.7,0.7,0.5,4,2.5,a,j,31,33,58.00255821,58.87305997,0,
TRUE,travel,4,148764,0.0-4.0,,,,,Harvest,175.3849993,74,100,0.98,30,0.7,0.7,0.5,4,2.5,a,j,31,33,56.93580175,57.69559877,0,
TRUE,travel,4,148908,0.0-4.0,,,,,Harvest,143.4199996,74,100,0.98,30,0.7,0.7,0.5,4,2.5,a,j,31,33,56.84363413,56.54168679,0,
,travel,4,149035,0.0-4.0,,,,,Harvest,127.2750003,65,100,0.98,30,0.7,0.7,0.5,4,2.5,a,j,32,63,null,,1,null
TRUE,travel,4,149227,0.0-4.0,,,,,TRAVEL,191.4900001,65,100,0.98,30,0.7,0.7,0.5,4,2.5,a,j,32,63,,,,
FALSE,travel,4,149227,0.0-4.0,,,,,TRAVEL,191.4900001,65,100,0.98,30,0.7,0.7,0.5,4,2.5,a,j,33,63,,,,
TRUE,travel,4,149403,0.0-4.0,,,,,TRAVEL,175.6800003,65,100,0.98,30,0.7,0.7,0.5,4,2.5,a,j,33,63,,,,
FALSE,travel,4,149403,0.0-4.0,,,,,TRAVEL,175.6800003,65,100,0.98,30,0.7,0.7,0.5,4,2.5,a,j,34,63,,,,
FALSE,travel,4,149579,0.0-4.0,,,,,TRAVEL,175.7450001,65,100,0.98,30,0.7,0.7,0.5,4,2.5,a,j,34,63,,,,
TRUE,travel,4,149755,0.0-4.0,,,,,TRAVEL,175.7749999,65,100,0.98,30,0.7,0.7,0.5,4,2.5,a,j,34,63,,,,
FALSE,travel,4,149755,0.0-4.0,,,,,TRAVEL,175.7749999,65,100,0.98,30,0.7,0.7,0.5,4,2.5,a,j,35,63,,,,
TRUE,travel,4,149947,0.0-4.0,,,,,TRAVEL,191.6850004,65,100,0.98,30,0.7,0.7,0.5,4,2.5,a,j,35,63,,,,
FALSE,travel,4,149947,0.0-4.0,,,,,TRAVEL,191.6850004,65,100,0.98,30,0.7,0.7,0.5,4,2.5,a,j,36,63,,,,
TRUE,travel,4,150155,0.0-4.0,,,,,TRAVEL,207.6849993,65,100,0.98,30,0.7,0.7,0.5,4,2.5,a,j,36,63,,,,
FALSE,travel,4,150155,0.0-4.0,,,,,TRAVEL,207.6849993,65,100,0.98,30,0.7,0.7,0.5,4,2.5,a,j,37,63,,,,
FALSE,travel,4,150363,0.0-4.0,,,,,TRAVEL,207.7500001,65,100,0.98,30,0.7,0.7,0.5,4,2.5,a,j,37,63,,,,
TRUE,travel,4,150571,0.0-4.0,,,,,TRAVEL,207.8299997,65,100,0.98,30,0.7,0.7,0.5,4,2.5,a,j,37,63,,,,
FALSE,travel,4,150571,0.0-4.0,,,,,TRAVEL,207.8299997,65,100,0.98,30,0.7,0.7,0.5,4,2.5,a,j,38,63,,,,
FALSE,travel,4,150731,0.0-4.0,,,,,TRAVEL,159.6650006,65,100,0.98,30,0.7,0.7,0.5,4,2.5,a,j,38,63,,,,
TRUE,travel,4,150955,0.0-4.0,,,,,TRAVEL,223.8499997,65,100,0.98,30,0.7,0.7,0.5,4,2.5,a,j,38,63,,,,
FALSE,travel,4,150955,0.0-4.0,,,,,TRAVEL,223.8499997,65,100,0.98,30,0.7,0.7,0.5,4,2.5,a,j,39,63,,,,
TRUE,travel,4,151163,0.0-4.0,,,,,TRAVEL,207.7100007,65,100,0.98,30,0.7,0.7,0.5,4,2.5,a,j,39,63,,,,
FALSE,travel,4,151163,0.0-4.0,,,,,TRAVEL,207.7100007,65,100,0.98,30,0.7,0.7,0.5,4,2.5,a,j,40,63,,,,
TRUE,travel,4,151339,0.0-4.0,,,,,TRAVEL,175.7549997,65,100,0.98,30,0.7,0.7,0.5,4,2.5,a,j,40,63,,,,
FALSE,travel,4,151339,0.0-4.0,,,,,TRAVEL,175.7549997,65,100,0.98,30,0.7,0.7,0.5,4,2.5,a,j,41,63,,,,
TRUE,travel,4,151723,0.0-4.0,,,,,TRAVEL,383.68,65,100,0.98,30,0.7,0.7,0.5,4,2.5,a,j,41,63,,,,
FALSE,travel,4,151723,0.0-4.0,,,,,TRAVEL,383.68,65,100,0.98,30,0.7,0.7,0.5,4,2.5,a,j,42,63,,,,
TRUE,travel,4,151899,0.0-4.0,,,,,TRAVEL,175.7300003,65,100,0.98,30,0.7,0.7,0.5,4,2.5,a,j,42,63,,,,
FALSE,travel,4,151899,0.0-4.0,,,,,TRAVEL,175.7300003,65,100,0.98,30,0.7,0.7,0.5,4,2.5,a,j,43,63,,,,
TRUE,travel,4,152091,0.0-4.0,,,,,TRAVEL,191.8549994,65,100,0.98,30,0.7,0.7,0.5,4,2.5,a,j,43,63,,,,
FALSE,travel,4,152091,0.0-4.0,,,,,TRAVEL,191.8549994,65,100,0.98,30,0.7,0.7,0.5,4,2.5,a,j,44,63,,,,
TRUE,travel,4,152315,0.0-4.0,,,,,TRAVEL,223.6399995,65,100,0.98,30,0.7,0.7,0.5,4,2.5,a,j,44,63,,,,
FALSE,travel,4,152315,0.0-4.0,,,,,TRAVEL,223.6399995,65,100,0.98,30,0.7,0.7,0.5,4,2.5,a,j,45,63,,,,
FALSE,travel,4,152523,0.0-4.0,,,,,TRAVEL,207.6249998,65,100,0.98,30,0.7,0.7,0.5,4,2.5,a,j,45,63,,,,
TRUE,travel,4,152683,0.0-4.0,,,,,TRAVEL,159.9199995,65,100,0.98,30,0.7,0.7,0.5,4,2.5,a,j,45,63,,,,
FALSE,travel,4,152683,0.0-4.0,,,,,TRAVEL,159.9199995,65,100,0.98,30,0.7,0.7,0.5,4,2.5,a,j,46,63,,,,
TRUE,travel,4,152907,0.0-4.0,,,,,TRAVEL,223.7499999,65,100,0.98,30,0.7,0.7,0.5,4,2.5,a,j,46,63,,,,
FALSE,travel,4,152907,0.0-4.0,,,,,TRAVEL,223.7499999,65,100,0.98,30,0.7,0.7,0.5,4,2.5,a,j,47,63,,,,
